onset	duration	eventnumber	sequencenumber	condition	streamnumber	stimnumber	objectstimnumber	letterstimnumber	objecttarget	lettertarget	is2back	objectstim	letterstim	response	rt	correct	time_stimon	time_stimoff
20306.25	100	0	0	0	36	0	14	1	0	0	0	stim015_stimuli_original_vehicles_planes_3.png	B	0	0	0	70.3496405275073	70.5496417952236
20406.5	100	1	0	0	36	1	4	9	0	0	0	stim005_stimuli_original_animals_fish_1.png	L	0	0	0	70.7504351998214	70.9496562774293
20506.25	100	2	0	0	36	2	9	8	0	0	0	stim010_stimuli_original_vehicles_boats_2.png	K	0	0	0	71.1496704672463	71.3496719789691
20606.25	100	3	0	0	36	3	5	3	0	0	0	stim006_stimuli_original_animals_fish_2.png	D	0	0	0	71.5496798295062	71.7496852420736
20706.25	100	4	0	0	36	4	0	11	0	0	0	stim001_stimuli_original_animals_birds_1.png	R	0	0	0	71.9496979690157	72.1496985054109
20806.25	100	5	0	0	36	5	1	13	0	0	0	stim002_stimuli_original_animals_birds_2.png	U	0	0	0	72.3497012360021	72.5497044543736
20906.25	100	6	0	0	36	6	10	2	0	0	0	stim011_stimuli_original_vehicles_boats_3.png	C	0	0	0	72.7497149868868	72.9497230814304
21006.25	100	7	0	0	36	7	7	5	0	0	0	stim008_stimuli_original_animals_fish_4.png	F	0	0	0	73.1497292253189	73.349725616863
21106.25	100	8	0	0	36	8	0	12	1	0	0	stim001_stimuli_original_animals_birds_1.png	T	0	0	0	73.5497344427276	73.7497354669031
21206.25	100	9	0	0	36	9	6	15	0	0	0	stim007_stimuli_original_animals_fish_3.png	Y	0	0	0	73.9497438052204	74.149772623321
21306.25	100	10	0	0	36	10	0	13	1	1	1	stim001_stimuli_original_animals_birds_1.png	U	0	0	0	74.3497617007233	74.5497617495712
21406.25	100	11	0	0	36	11	11	0	0	0	0	stim012_stimuli_original_vehicles_boats_4.png	A	0	0	0	74.7497749640606	74.949791835621
21506.25	100	12	0	0	36	12	15	13	0	1	0	stim016_stimuli_original_vehicles_planes_4.png	U	0	0	0	75.149781888118	75.3497775483411
21606.25	100	13	0	0	36	13	12	10	0	0	0	stim013_stimuli_original_vehicles_planes_1.png	Q	d	75.5425664454233	1	75.5497873495333	75.7497878859285
21706.25	100	14	0	0	36	14	13	4	0	0	0	stim014_stimuli_original_vehicles_planes_2.png	E	0	0	0	75.9498062203638	76.1498016368132
21806.25	100	15	0	0	36	15	3	7	0	0	0	stim004_stimuli_original_animals_birds_4.png	J	0	0	0	76.3498248474207	76.5498117303941
21906.25	100	16	0	0	36	16	2	14	0	0	0	stim003_stimuli_original_animals_birds_3.png	V	0	0	0	76.7498166554142	76.949822555529
22006.25	100	17	0	0	36	17	8	6	0	0	0	stim009_stimuli_original_vehicles_boats_1.png	G	0	0	0	77.1498301625252	77.3498092435766
22106.25	100	18	0	0	36	18	6	8	0	0	0	stim007_stimuli_original_animals_fish_3.png	K	0	0	0	77.5498378181364	77.7498437182512
22206.25	100	19	0	0	36	19	14	2	0	0	0	stim015_stimuli_original_vehicles_planes_3.png	C	0	0	0	77.9498388906941	78.1498406461906
22306.25	100	20	0	0	36	20	7	3	0	0	0	stim008_stimuli_original_animals_fish_4.png	D	0	0	0	78.349863125477	78.5498858485371
22406.25	100	21	0	0	36	21	4	13	0	0	0	stim005_stimuli_original_animals_fish_1.png	U	0	0	0	78.7498610287439	78.9498642468825
22506.25	100	22	0	0	36	22	10	12	0	0	0	stim011_stimuli_original_vehicles_boats_3.png	T	0	0	0	79.1498718538787	79.3499106683303
22606.25	100	23	0	0	36	23	13	15	1	0	0	stim014_stimuli_original_vehicles_planes_2.png	Y	0	0	0	79.5499133989215	79.7499271009583
22706.25	100	24	0	0	36	24	0	11	0	0	0	stim001_stimuli_original_animals_birds_1.png	R	0	0	0	79.9499074013438	80.149930855725
22806.25	100	25	0	0	36	25	13	0	1	1	1	stim014_stimuli_original_vehicles_planes_2.png	A	0	0	0	80.3499140816275	80.5499168122187
22906.25	100	26	0	0	36	26	15	6	0	0	0	stim016_stimuli_original_vehicles_planes_4.png	G	d	80.9416912670713	1	80.7499232001137	80.9499354392756
23006.25	100	27	0	0	36	27	12	0	0	1	0	stim013_stimuli_original_vehicles_planes_1.png	A	0	0	0	81.1499591376632	81.3499306605663
23106.25	100	28	0	0	36	28	5	7	0	0	0	stim006_stimuli_original_animals_fish_2.png	J	0	0	0	81.5499409495387	81.7499456305522
23206.25	100	29	0	0	36	29	2	10	0	0	0	stim003_stimuli_original_animals_birds_3.png	Q	0	0	0	81.9499449478462	82.1499549928121
23306.25	100	30	0	0	36	30	13	1	0	0	0	stim014_stimuli_original_vehicles_planes_2.png	B	0	0	0	82.349964306457	82.5499609417748
23406.25	100	31	0	0	36	31	11	0	0	0	0	stim012_stimuli_original_vehicles_boats_4.png	A	0	0	0	82.749970742967	82.9499746926595
23506.25	100	32	0	0	36	32	3	5	0	0	0	stim004_stimuli_original_animals_birds_4.png	F	d	83.1425334336236	0	83.1499818118755	83.3499881997705
23606.25	100	33	0	0	36	33	8	9	0	0	0	stim009_stimuli_original_vehicles_boats_1.png	L	0	0	0	83.5499943436589	83.7499926858582
23706.25	100	34	0	0	36	34	9	4	0	0	0	stim010_stimuli_original_vehicles_boats_2.png	E	0	0	0	83.95000492502	84.150005705189
23806.25	100	35	0	0	36	35	1	14	0	0	0	stim002_stimuli_original_animals_birds_2.png	V	0	0	0	84.3500169692561	84.5500189685263
25702.25	100	36	1	1	21	0	4	15	0	0	0	stim005_stimuli_original_animals_fish_1.png	Y	0	0	0	91.9335765577853	92.1335505188908
25802.25	100	37	1	1	21	1	13	10	0	0	0	stim014_stimuli_original_vehicles_planes_2.png	Q	0	0	0	92.3335608076304	92.533561100252
25902.25	100	38	1	1	21	2	3	1	0	0	0	stim004_stimuli_original_animals_birds_4.png	B	0	0	0	92.7335830917582	92.9337296700105
26002.25	100	39	1	1	21	3	9	3	0	0	0	stim010_stimuli_original_vehicles_boats_2.png	D	0	0	0	93.1336078140885	93.3336115200073
26102.25	100	40	1	1	21	4	11	12	0	0	0	stim012_stimuli_original_vehicles_boats_4.png	T	0	0	0	93.5336030353792	93.7336250271183
26202.25	100	41	1	1	21	5	2	6	0	0	0	stim003_stimuli_original_animals_birds_3.png	G	0	0	0	93.9336026452947	94.1336104960646
26302.25	100	42	1	1	21	6	12	13	0	0	0	stim013_stimuli_original_vehicles_planes_1.png	U	0	0	0	94.3336061560549	94.5336120564025
26402.25	100	43	1	1	21	7	1	14	0	0	0	stim002_stimuli_original_animals_birds_2.png	V	0	0	0	94.7336199069396	94.9336528701242
26502.25	100	44	1	1	21	8	7	8	0	0	0	stim008_stimuli_original_animals_fish_4.png	K	0	0	0	95.1336314636283	95.3336320000235
26602.25	100	45	1	1	21	9	11	7	1	0	0	stim012_stimuli_original_vehicles_boats_4.png	J	d	95.5261685543228	0	95.5336410696618	95.7336445318069
26702.25	100	46	1	1	21	10	10	0	0	0	0	stim011_stimuli_original_vehicles_boats_3.png	A	0	0	0	95.9336823709309	96.1336531625129
26802.25	100	47	1	1	21	11	11	9	1	0	0	stim012_stimuli_original_vehicles_boats_4.png	L	0	0	0	96.3336768609006	96.5336803230457
26902.25	100	48	1	1	21	12	15	8	0	1	0	stim016_stimuli_original_vehicles_planes_4.png	K	0	0	0	96.7336835411843	96.9336872471031
27002.25	100	49	1	1	21	13	5	2	0	0	0	stim006_stimuli_original_animals_fish_2.png	C	0	0	0	97.1336936349981	97.3336939276196
27102.25	100	50	1	1	21	14	6	8	0	1	1	stim007_stimuli_original_animals_fish_3.png	K	0	0	0	97.5337281096727	97.7337264516391
27202.25	100	51	1	1	21	15	0	5	0	0	0	stim001_stimuli_original_animals_birds_1.png	F	0	0	0	97.9337374719325	98.1337231360376
27302.25	100	52	1	1	21	16	14	11	0	0	0	stim015_stimuli_original_vehicles_planes_3.png	R	d	98.3262972368393	1	98.3337507352699	98.5337490772363
27402.25	100	53	1	1	21	17	8	4	0	0	0	stim009_stimuli_original_vehicles_boats_1.png	E	0	0	0	98.7337344975676	98.9337330833077
27502.25	100	54	1	1	21	18	4	8	0	0	0	stim005_stimuli_original_animals_fish_1.png	K	0	0	0	99.1337360579055	99.3337380571757
27602.25	100	55	1	1	21	19	11	14	0	0	0	stim012_stimuli_original_vehicles_boats_4.png	V	0	0	0	99.5337481019087	99.7337793584447
27702.25	100	56	1	1	21	20	5	0	0	0	0	stim006_stimuli_original_animals_fish_2.png	A	0	0	0	99.9337796510663	100.133783112979
27802.25	100	57	1	1	21	21	8	6	1	0	0	stim009_stimuli_original_vehicles_boats_1.png	G	0	0	0	100.333790719975	100.533780528698
27902.25	100	58	1	1	21	22	2	5	0	0	0	stim003_stimuli_original_animals_birds_3.png	F	0	0	0	100.733784234617	100.933784039458
28002.25	100	59	1	1	21	23	8	15	1	0	0	stim009_stimuli_original_vehicles_boats_1.png	Y	0	0	0	101.133803349221	101.333793401718
28102.25	100	60	1	1	21	24	9	11	0	1	0	stim010_stimuli_original_vehicles_boats_2.png	R	0	0	0	101.533803446684	101.733803983079
28202.25	100	61	1	1	21	25	0	10	0	0	0	stim001_stimuli_original_animals_birds_1.png	Q	0	0	0	101.933809151873	102.133821147261
28302.25	100	62	1	1	21	26	7	11	0	1	1	stim008_stimuli_original_animals_fish_4.png	R	0	0	0	102.333823146531	102.533822951606
28402.25	100	63	1	1	21	27	8	7	0	0	0	stim009_stimuli_original_vehicles_boats_1.png	J	0	0	0	102.733832265018	102.933834508061
28502.25	100	64	1	1	21	28	14	1	0	0	0	stim015_stimuli_original_vehicles_planes_3.png	B	0	0	0	103.133842358831	103.333845089423
28602.25	100	65	1	1	21	29	13	12	0	0	0	stim014_stimuli_original_vehicles_planes_2.png	T	0	0	0	103.533992886776	103.733887853567
28702.25	100	66	1	1	21	30	6	2	0	0	0	stim007_stimuli_original_animals_fish_3.png	C	0	0	0	103.933868153719	104.133863326395
28802.25	100	67	1	1	21	31	12	11	0	0	0	stim013_stimuli_original_vehicles_planes_1.png	R	0	0	0	104.33387215226	104.533883172553
28902.25	100	68	1	1	21	32	3	9	0	0	0	stim004_stimuli_original_animals_birds_4.png	L	0	0	0	104.733891510637	104.933903262252
29002.25	100	69	1	1	21	33	1	3	0	0	0	stim002_stimuli_original_animals_birds_2.png	D	0	0	0	105.13390038535	105.333896777127
29102.25	100	70	1	1	21	34	10	13	0	0	0	stim011_stimuli_original_vehicles_boats_3.png	U	0	0	0	105.53390438389	105.733910527779
29202.25	100	71	1	1	21	35	15	4	0	0	0	stim016_stimuli_original_vehicles_planes_4.png	E	0	0	0	105.933918134775	106.133919646265
30748	100	72	2	0	17	0	14	1	0	0	0	stim015_stimuli_original_vehicles_planes_3.png	B	0	0	0	112.117427644785	112.31742111058
30848	100	73	2	0	17	1	5	12	0	0	0	stim006_stimuli_original_animals_fish_2.png	T	0	0	0	112.517434812849	112.717437055893
30948	100	74	2	0	17	2	13	10	0	0	0	stim014_stimuli_original_vehicles_planes_2.png	Q	0	0	0	112.91744198068	113.117445930373
31048	100	75	2	0	17	3	10	11	0	0	0	stim011_stimuli_original_vehicles_boats_3.png	R	0	0	0	113.317452562042	113.517456999514
31148	100	76	2	0	17	4	15	6	0	0	0	stim016_stimuli_original_vehicles_planes_4.png	G	0	0	0	113.717460217653	113.917461729376
31248.25	100	77	2	0	17	5	7	8	0	0	0	stim008_stimuli_original_animals_fish_4.png	K	0	0	0	114.117486646632	114.317502299091
31348.25	100	78	2	0	17	6	9	14	1	0	0	stim010_stimuli_original_vehicles_boats_2.png	V	0	0	0	114.517512588063	114.717488987138
31448.25	100	79	2	0	17	7	0	15	0	0	0	stim001_stimuli_original_animals_birds_1.png	Y	0	0	0	114.917498788331	115.117496398976
31548.25	100	80	2	0	17	8	9	7	1	0	1	stim010_stimuli_original_vehicles_boats_2.png	J	0	0	0	115.317504005972	115.517538431799
31648.25	100	81	2	0	17	9	4	3	0	0	0	stim005_stimuli_original_animals_fish_1.png	D	0	0	0	115.71754116239	115.917544136988
31748.25	100	82	2	0	17	10	1	13	0	0	0	stim002_stimuli_original_animals_birds_2.png	U	0	0	0	116.117551743751	116.317536432529
31848.25	100	83	2	0	17	11	3	9	0	0	0	stim004_stimuli_original_animals_birds_4.png	L	0	0	0	116.517553304089	116.717574320501
31948.25	100	84	2	0	17	12	9	14	0	1	0	stim010_stimuli_original_vehicles_boats_2.png	V	0	0	0	116.917572906474	117.117559058126
32048.25	100	85	2	0	17	13	2	4	0	0	0	stim003_stimuli_original_animals_birds_3.png	E	0	0	0	117.317586657358	117.517584999325
32148.25	100	86	2	0	17	14	12	14	0	1	0	stim013_stimuli_original_vehicles_planes_1.png	V	0	0	0	117.717571150977	117.917588997865
32248.25	100	87	2	0	17	15	6	0	0	0	0	stim007_stimuli_original_animals_fish_3.png	A	d	118.110125308391	0	118.117579050362	118.31758495071
32348.25	100	88	2	0	17	16	11	2	0	0	0	stim012_stimuli_original_vehicles_boats_4.png	C	0	0	0	118.5175864622	118.717586754821
32448.25	100	89	2	0	17	17	8	5	0	0	0	stim009_stimuli_original_vehicles_boats_1.png	F	0	0	0	118.91759582446	119.117597579956
32548.25	100	90	2	0	17	18	5	8	0	0	0	stim006_stimuli_original_animals_fish_2.png	K	0	0	0	119.317776828539	119.517647658475
32648.25	100	91	2	0	17	19	2	11	0	0	0	stim003_stimuli_original_animals_birds_3.png	R	0	0	0	119.71761869383	119.91765263211
32748.25	100	92	2	0	17	20	0	6	0	0	0	stim001_stimuli_original_animals_birds_1.png	G	0	0	0	120.117650486529	120.317641026806
32848.25	100	93	2	0	17	21	14	12	1	0	0	stim015_stimuli_original_vehicles_planes_3.png	T	0	0	0	120.51764570782	120.717651851941
32948.25	100	94	2	0	17	22	4	2	0	0	0	stim005_stimuli_original_animals_fish_1.png	C	d	121.109433620935	0	120.917669211049	121.11765170563
33048.25	100	95	2	0	17	23	14	9	1	0	1	stim015_stimuli_original_vehicles_planes_3.png	L	0	0	0	121.317690276308	121.517667406937
33148.25	100	96	2	0	17	24	9	3	0	0	0	stim010_stimuli_original_vehicles_boats_2.png	D	0	0	0	121.717679890106	121.917690666392
33248.25	100	97	2	0	17	25	13	1	0	0	0	stim014_stimuli_original_vehicles_planes_2.png	B	d	122.110242092982	1	122.117694372311	122.317691251403
33348.25	100	98	2	0	17	26	3	4	0	0	0	stim004_stimuli_original_animals_birds_4.png	E	0	0	0	122.51770251547	122.717703295639
33448.25	100	99	2	0	17	27	7	9	0	1	0	stim008_stimuli_original_animals_fish_4.png	L	0	0	0	122.917710414855	123.117702661781
33548.25	100	100	2	0	17	28	15	0	0	0	0	stim016_stimuli_original_vehicles_planes_4.png	A	0	0	0	123.317719289567	123.517720557516
33648.25	100	101	2	0	17	29	14	9	0	1	0	stim015_stimuli_original_vehicles_planes_3.png	L	0	0	0	123.717730114702	123.917727969121
33748.25	100	102	2	0	17	30	8	7	0	0	0	stim009_stimuli_original_vehicles_boats_1.png	J	0	0	0	124.117748497985	124.31773367431
33848.25	100	103	2	0	17	31	6	15	0	0	0	stim007_stimuli_original_animals_fish_3.png	Y	0	0	0	124.517743719276	124.718093147036
33948.25	100	104	2	0	17	32	11	10	0	0	0	stim012_stimuli_original_vehicles_boats_4.png	Q	0	0	0	124.91776332166	125.117763858056
34048.25	100	105	2	0	17	33	10	13	0	0	0	stim011_stimuli_original_vehicles_boats_3.png	U	0	0	0	125.317773903022	125.517777608708
34148.25	100	106	2	0	17	34	12	5	0	0	0	stim013_stimuli_original_vehicles_planes_1.png	F	0	0	0	125.717810328119	125.917796235764
34248.25	100	107	2	0	17	35	1	14	0	0	0	stim002_stimuli_original_animals_birds_2.png	V	0	0	0	126.117817252176	126.317818763899
36690	100	108	3	1	4	0	1	7	0	0	0	stim002_stimuli_original_animals_birds_2.png	J	0	0	0	135.884745428804	136.084747915855
36790	100	109	3	1	4	1	2	8	0	0	0	stim003_stimuli_original_animals_birds_3.png	K	0	0	0	136.28473016643	136.484728996176
36890	100	110	3	1	4	2	0	0	0	0	0	stim001_stimuli_original_animals_birds_1.png	A	0	0	0	136.684773174347	136.884752499405
36990	100	111	3	1	4	3	13	1	0	0	0	stim014_stimuli_original_vehicles_planes_2.png	B	0	0	0	137.08475547377	137.284758935915
37090	100	112	3	1	4	4	5	13	0	0	0	stim006_stimuli_original_animals_fish_2.png	U	0	0	0	137.484784584725	137.684780001175
37190	100	113	3	1	4	5	6	4	0	0	0	stim007_stimuli_original_animals_fish_3.png	E	0	0	0	137.88478297554	138.084781561513
37290	100	114	3	1	4	6	3	6	0	1	0	stim004_stimuli_original_animals_birds_4.png	G	0	0	0	138.284788436955	138.484831152251
37390	100	115	3	1	4	7	7	12	0	0	0	stim008_stimuli_original_animals_fish_4.png	T	0	0	0	138.685146446573	138.884797116509
37490	100	116	3	1	4	8	15	6	0	1	1	stim016_stimuli_original_vehicles_planes_4.png	G	0	0	0	139.08480033488	139.284803065471
37590	100	117	3	1	4	9	12	11	0	0	0	stim013_stimuli_original_vehicles_planes_1.png	R	0	0	0	139.484824813204	139.684848999139
37690	100	118	3	1	4	10	7	9	1	0	0	stim008_stimuli_original_animals_fish_4.png	L	0	0	0	139.884860263206	140.084846170852
37790	100	119	3	1	4	11	10	3	0	0	0	stim011_stimuli_original_vehicles_boats_3.png	D	0	0	0	140.284850364551	140.484844805673
37890	100	120	3	1	4	12	7	6	1	0	0	stim008_stimuli_original_animals_fish_4.png	G	0	0	0	140.68484729249	140.884851973504
37990	100	121	3	1	4	13	14	5	0	0	0	stim015_stimuli_original_vehicles_planes_3.png	F	0	0	0	141.084866163321	141.284891812131
38090	100	122	3	1	4	14	9	15	0	0	0	stim010_stimuli_original_vehicles_boats_2.png	Y	0	0	0	141.484876744682	141.684875574429
38190	100	123	3	1	4	15	8	10	0	0	0	stim009_stimuli_original_vehicles_boats_1.png	Q	0	0	0	141.884879280347	142.084884205135
38290	100	124	3	1	4	16	4	2	0	0	0	stim005_stimuli_original_animals_fish_1.png	C	0	0	0	142.284889861709	142.484936965629
38390	100	125	3	1	4	17	11	14	0	0	0	stim012_stimuli_original_vehicles_boats_4.png	V	0	0	0	142.684949936345	142.884936575545
38490	100	126	3	1	4	18	14	11	0	0	0	stim015_stimuli_original_vehicles_planes_3.png	R	0	0	0	143.084940769011	143.284945937805
38590	100	127	3	1	4	19	2	4	0	0	0	stim003_stimuli_original_animals_birds_3.png	E	0	0	0	143.484951106599	143.684944816167
38690	100	128	3	1	4	20	10	8	0	0	0	stim011_stimuli_original_vehicles_boats_3.png	K	d	144.076700010104	0	143.884933406021	144.085145081393
38790	100	129	3	1	4	21	15	9	0	0	0	stim016_stimuli_original_vehicles_planes_4.png	L	0	0	0	144.284973488189	144.484953788342
38890	100	130	3	1	4	22	5	14	0	0	0	stim006_stimuli_original_animals_fish_2.png	V	0	0	0	144.684955300065	144.884957786882
38990	100	131	3	1	4	23	6	7	0	1	0	stim007_stimuli_original_animals_fish_3.png	J	0	0	0	145.084967831848	145.284966661595
39090	100	132	3	1	4	24	3	10	0	0	0	stim004_stimuli_original_animals_birds_4.png	Q	0	0	0	145.484977925662	145.684987239074
39190	100	133	3	1	4	25	9	7	0	1	1	stim010_stimuli_original_vehicles_boats_2.png	J	d	145.877596204868	1	145.884990701219	146.085002940381
39290	100	134	3	1	4	26	11	12	0	0	0	stim012_stimuli_original_vehicles_boats_4.png	T	0	0	0	146.284999088151	146.485004744725
39390	100	135	3	1	4	27	6	15	1	0	0	stim007_stimuli_original_animals_fish_3.png	Y	0	0	0	146.685006987769	146.885002647759
39490	100	136	3	1	4	28	12	7	0	0	0	stim013_stimuli_original_vehicles_planes_1.png	J	0	0	0	147.085046094609	147.285049800528
39590	100	137	3	1	4	29	6	3	1	0	0	stim007_stimuli_original_animals_fish_3.png	D	0	0	0	147.485041559907	147.685029418208
39690	100	138	3	1	4	30	4	6	0	0	0	stim005_stimuli_original_animals_fish_1.png	G	0	0	0	147.885047752643	148.085046826163
39790	100	139	3	1	4	31	13	5	0	0	0	stim014_stimuli_original_vehicles_planes_2.png	F	0	0	0	148.285044436809	148.485045948299
39890	100	140	3	1	4	32	1	13	0	0	0	stim002_stimuli_original_animals_birds_2.png	U	0	0	0	148.685073547531	148.885069451528
39990	100	141	3	1	4	33	0	0	0	0	0	stim001_stimuli_original_animals_birds_1.png	A	0	0	0	149.085077546071	149.285078570014
40090	100	142	3	1	4	34	8	2	0	0	0	stim009_stimuli_original_vehicles_boats_1.png	C	d	149.477669006446	0	149.485116653144	149.685101341922
40190	100	143	3	1	4	35	7	1	0	0	0	stim008_stimuli_original_animals_fish_4.png	B	0	0	0	149.885115775513	150.085125332698
42348.5	100	144	4	0	33	0	3	5	0	0	0	stim004_stimuli_original_animals_birds_4.png	F	0	0	0	158.518668244593	158.718661466846
42448.5	100	145	4	0	33	1	11	3	0	0	0	stim012_stimuli_original_vehicles_boats_4.png	D	0	0	0	158.918680532603	159.118700086139
42548.5	100	146	4	0	33	2	4	1	0	0	0	stim005_stimuli_original_animals_fish_1.png	B	0	0	0	159.31869672169	159.518687993288
42648.5	100	147	4	0	33	3	14	9	0	0	0	stim015_stimuli_original_vehicles_planes_3.png	L	0	0	0	159.718699501129	159.918698574649
42748.5	100	148	4	0	33	4	6	8	1	0	0	stim007_stimuli_original_animals_fish_3.png	K	0	0	0	160.118696916616	160.318706961581
42848.5	100	149	4	0	33	5	0	6	0	1	0	stim001_stimuli_original_animals_birds_1.png	G	0	0	0	160.518716519	160.718725101091
42948.5	100	150	4	0	33	6	6	0	1	0	1	stim007_stimuli_original_animals_fish_3.png	A	0	0	0	160.918768304167	161.118732756702
43048.5	100	151	4	0	33	7	15	6	0	1	0	stim016_stimuli_original_vehicles_planes_4.png	G	0	0	0	161.318739632145	161.518736999016
43148.5	100	152	4	0	33	8	13	14	0	0	0	stim014_stimuli_original_vehicles_planes_2.png	V	0	0	0	161.718741923803	161.918744410854
43248.5	100	153	4	0	33	9	10	13	0	0	0	stim011_stimuli_original_vehicles_boats_3.png	U	0	0	0	162.118754699593	162.318775715772
43348.5	100	154	4	0	33	10	1	2	0	0	0	stim002_stimuli_original_animals_birds_2.png	C	0	0	0	162.518783078995	162.71879312396
43448.5	100	155	4	0	33	11	5	12	0	0	0	stim006_stimuli_original_animals_fish_2.png	T	0	0	0	162.918780250708	163.118779568002
43548.5	100	156	4	0	33	12	6	4	0	0	0	stim007_stimuli_original_animals_fish_3.png	E	0	0	0	163.318787662545	163.518817943754
43648.5	100	157	4	0	33	13	7	11	0	0	0	stim008_stimuli_original_animals_fish_4.png	R	0	0	0	163.718823112547	163.91882657446
43748.5	100	158	4	0	33	14	9	6	0	0	0	stim010_stimuli_original_vehicles_boats_2.png	G	0	0	0	164.118836131878	164.318837155821
43848.5	100	159	4	0	33	15	8	7	0	0	0	stim009_stimuli_original_vehicles_boats_1.png	J	0	0	0	164.51885037031	164.718833839986
43948.5	100	160	4	0	33	16	2	10	0	0	0	stim003_stimuli_original_animals_birds_3.png	Q	0	0	0	164.918856319273	165.118856855668
44048.5	100	161	4	0	33	17	12	15	0	0	0	stim013_stimuli_original_vehicles_planes_1.png	Y	0	0	0	165.318868119735	165.518848176114
44148.5	100	162	4	0	33	18	15	12	0	0	0	stim016_stimuli_original_vehicles_planes_4.png	T	0	0	0	165.718852125807	165.918880212586
44248.5	100	163	4	0	33	19	10	2	0	0	0	stim011_stimuli_original_vehicles_boats_3.png	C	0	0	0	166.11887050909	166.3188903064
44348.5	100	164	4	0	33	20	7	8	0	0	0	stim008_stimuli_original_animals_fish_4.png	K	0	0	0	166.518884747522	166.718894548481
44448.5	100	165	4	0	33	21	6	9	0	0	0	stim007_stimuli_original_animals_fish_3.png	L	0	0	0	166.918900448829	167.11890025367
44548.5	100	166	4	0	33	22	11	7	0	0	0	stim012_stimuli_original_vehicles_boats_4.png	J	0	0	0	167.318912249058	167.51891546743
44648.5	100	167	4	0	33	23	4	6	0	0	0	stim005_stimuli_original_animals_fish_1.png	G	0	0	0	167.719312438043	167.91892775544
44748.5	100	168	4	0	33	24	12	5	0	0	0	stim013_stimuli_original_vehicles_planes_1.png	F	0	0	0	168.118929510936	168.318919319659
44848.5	100	169	4	0	33	25	2	1	0	0	0	stim003_stimuli_original_animals_birds_3.png	B	0	0	0	168.518925219774	168.718952819007
44948.5	100	170	4	0	33	26	13	10	0	0	0	stim014_stimuli_original_vehicles_planes_2.png	Q	0	0	0	168.918937507784	169.118941213703
45048.5	100	171	4	0	33	27	14	13	0	0	0	stim015_stimuli_original_vehicles_planes_3.png	U	0	0	0	169.318948332919	169.518967155134
45148.5	100	172	4	0	33	28	6	15	1	0	0	stim007_stimuli_original_animals_fish_3.png	Y	0	0	0	169.71895306278	169.918956037378
45248.5	100	173	4	0	33	29	0	6	0	1	0	stim001_stimuli_original_animals_birds_1.png	G	0	0	0	170.118963156594	170.31897320156
45348.5	100	174	4	0	33	30	6	0	1	0	1	stim007_stimuli_original_animals_fish_3.png	A	d	170.511559736915	1	170.518989829347	170.718992559938
45448.5	100	175	4	0	33	31	8	6	0	1	0	stim009_stimuli_original_vehicles_boats_1.png	G	0	0	0	170.918993827887	171.118993876502
45548.5	100	176	4	0	33	32	9	14	0	0	0	stim010_stimuli_original_vehicles_boats_2.png	V	0	0	0	171.319001483498	171.519009090262
45648.5	100	177	4	0	33	33	1	4	0	0	0	stim002_stimuli_original_animals_birds_2.png	E	0	0	0	171.719034982845	171.91902064695
45748.5	100	178	4	0	33	34	3	11	0	0	0	stim004_stimuli_original_animals_birds_4.png	R	0	0	0	172.119016794721	172.319019525312
45848.5	100	179	4	0	33	35	5	3	0	0	0	stim006_stimuli_original_animals_fish_2.png	D	d	172.710806658259	1	172.519044442568	172.719049123814
48052.75	100	180	5	1	6	0	3	7	0	0	0	stim004_stimuli_original_animals_birds_4.png	J	0	0	0	181.335957942065	181.535939217312
48152.75	100	181	5	1	6	1	8	13	0	0	0	stim009_stimuli_original_vehicles_boats_1.png	U	0	0	0	181.735967548098	181.935951749329
48252.75	100	182	5	1	6	2	11	14	0	0	0	stim012_stimuli_original_vehicles_boats_4.png	V	0	0	0	182.135976178804	182.335981591605
48352.75	100	183	5	1	6	3	7	9	0	0	0	stim008_stimuli_original_animals_fish_4.png	L	0	0	0	182.535987979267	182.73598949099
48452.75	100	184	5	1	6	4	4	6	0	0	0	stim005_stimuli_original_animals_fish_1.png	G	0	0	0	182.935999779729	183.136025672313
48552.75	100	185	5	1	6	5	5	3	0	0	0	stim006_stimuli_original_animals_fish_2.png	D	0	0	0	183.335985492449	183.536029914627
48652.75	100	186	5	1	6	6	10	11	0	1	0	stim011_stimuli_original_vehicles_boats_3.png	R	0	0	0	183.736024843296	183.936021478614
48752.75	100	187	5	1	6	7	14	0	0	0	0	stim015_stimuli_original_vehicles_planes_3.png	A	0	0	0	184.136012750445	184.336033766624
48852.75	100	188	5	1	6	8	0	11	1	1	1	stim001_stimuli_original_animals_birds_1.png	R	d	184.727791886311	1	184.536029183073	184.736041666241
48952.75	100	189	5	1	6	9	6	1	0	0	0	stim007_stimuli_original_animals_fish_3.png	B	0	0	0	184.936064389069	185.136053710245
49052.75	100	190	5	1	6	10	0	15	1	0	0	stim001_stimuli_original_animals_birds_1.png	Y	0	0	0	185.336041324772	185.53604137362
49152.75	100	191	5	1	6	11	12	11	0	0	0	stim013_stimuli_original_vehicles_planes_1.png	R	0	0	0	185.736048005288	185.936049029231
49252.75	100	192	5	1	6	12	9	2	0	0	0	stim010_stimuli_original_vehicles_boats_2.png	C	0	0	0	186.136053466471	186.336230520857
49352.75	100	193	5	1	6	13	2	5	0	0	0	stim003_stimuli_original_animals_birds_3.png	F	0	0	0	186.536097937264	186.736098473659
49452.75	100	194	5	1	6	14	13	8	0	0	0	stim014_stimuli_original_vehicles_planes_2.png	K	0	0	0	186.936103886226	187.136116369395
49552.75	100	195	5	1	6	15	1	4	0	0	0	stim002_stimuli_original_animals_birds_2.png	E	0	0	0	187.336114711361	187.536116710631
49652.75	100	196	5	1	6	16	0	12	0	0	0	stim001_stimuli_original_animals_birds_1.png	T	0	0	0	187.736107982229	187.936118270969
49752.75	100	197	5	1	6	17	15	10	0	0	0	stim016_stimuli_original_vehicles_planes_4.png	Q	0	0	0	188.136142944684	188.33611398004
49852.75	100	198	5	1	6	18	10	15	0	0	0	stim011_stimuli_original_vehicles_boats_3.png	Y	0	0	0	188.536116954405	188.736126511823
49952.75	100	199	5	1	6	19	12	0	0	0	0	stim013_stimuli_original_vehicles_planes_1.png	A	d	189.12792193424	0	188.9361580119	189.136163912248
50052.75	100	200	5	1	6	20	4	1	0	0	0	stim005_stimuli_original_animals_fish_1.png	B	0	0	0	189.336169812363	189.536150600296
50152.75	100	201	5	1	6	21	8	13	0	0	0	stim009_stimuli_original_vehicles_boats_1.png	U	0	0	0	189.736158207059	189.936152404407
50252.75	100	202	5	1	6	22	5	2	0	0	0	stim006_stimuli_original_animals_fish_2.png	C	0	0	0	190.13616586267	190.336165911518
50352.75	100	203	5	1	6	23	2	9	0	0	0	stim003_stimuli_original_animals_birds_3.png	L	0	0	0	190.536172542954	190.736186001217
50452.75	100	204	5	1	6	24	11	12	0	0	0	stim012_stimuli_original_vehicles_boats_4.png	T	0	0	0	190.936188244261	191.136190487305
50552.75	100	205	5	1	6	25	15	0	0	1	0	stim016_stimuli_original_vehicles_planes_4.png	A	0	0	0	191.336188829504	191.536193754524
50652.75	100	206	5	1	6	26	1	6	0	0	0	stim002_stimuli_original_animals_birds_2.png	G	d	191.728773463052	0	191.736264264211	191.936239200644
50752.75	100	207	5	1	6	27	11	0	1	1	1	stim012_stimuli_original_vehicles_boats_4.png	A	0	0	0	192.136213405523	192.336213941919
50852.75	100	208	5	1	6	28	0	14	0	0	0	stim001_stimuli_original_animals_birds_1.png	V	0	0	0	192.536235445878	192.736239639344
50952.75	100	209	5	1	6	29	11	10	1	0	0	stim012_stimuli_original_vehicles_boats_4.png	Q	d	192.928834951716	1	192.936265531927	193.136271432042
51052.75	100	210	5	1	6	30	3	5	0	0	0	stim004_stimuli_original_animals_birds_4.png	F	0	0	0	193.33625953435	193.536276649684
51152.75	100	211	5	1	6	31	6	4	0	0	0	stim007_stimuli_original_animals_fish_3.png	E	0	0	0	193.736268408829	193.936287474819
51252.75	100	212	5	1	6	32	9	7	0	0	0	stim010_stimuli_original_vehicles_boats_2.png	J	0	0	0	194.136304590153	194.336302688578
51352.75	100	213	5	1	6	33	14	11	0	0	0	stim015_stimuli_original_vehicles_planes_3.png	R	0	0	0	194.536305175396	194.736311563291
51452.75	100	214	5	1	6	34	13	8	0	0	0	stim014_stimuli_original_vehicles_planes_2.png	K	d	194.928870548028	0	194.936340625165	195.136319462676
51552.75	100	215	5	1	6	35	7	3	0	0	0	stim008_stimuli_original_animals_fish_4.png	D	0	0	0	195.336327069439	195.536350280046
54390.25	100	216	6	0	45	0	3	3	0	0	0	stim004_stimuli_original_animals_birds_4.png	D	0	0	0	206.686602232745	206.886609595735
54490.25	100	217	6	0	45	1	11	14	0	0	0	stim012_stimuli_original_vehicles_boats_4.png	V	0	0	0	207.086628661724	207.286625541048
54590.25	100	218	6	0	45	2	7	15	0	0	0	stim008_stimuli_original_animals_fish_4.png	Y	0	0	0	207.486641681055	207.686655870872
54690.25	100	219	6	0	45	3	8	5	0	0	0	stim009_stimuli_original_vehicles_boats_1.png	F	0	0	0	207.886669572908	208.086668646429
54790.25	100	220	6	0	45	4	1	10	1	0	0	stim002_stimuli_original_animals_birds_2.png	Q	0	0	0	208.286653335206	208.486661185976
54890.25	100	221	6	0	45	5	2	13	0	0	0	stim003_stimuli_original_animals_birds_3.png	U	0	0	0	208.686683177482	208.886683713878
54990.25	100	222	6	0	45	6	1	12	1	0	1	stim002_stimuli_original_animals_birds_2.png	T	0	0	0	209.086696197046	209.286679910496
55090.25	100	223	6	0	45	7	15	2	0	0	0	stim016_stimuli_original_vehicles_planes_4.png	C	d	209.678465580568	1	209.48670287733	209.68670780235
55190.25	100	224	6	0	45	8	5	1	0	0	0	stim006_stimuli_original_animals_fish_2.png	B	0	0	0	209.886696635745	210.086693758843
55290.25	100	225	6	0	45	9	12	8	0	0	0	stim013_stimuli_original_vehicles_planes_1.png	K	0	0	0	210.286702097161	210.486707509728
55390.25	100	226	6	0	45	10	0	9	0	0	0	stim001_stimuli_original_animals_birds_1.png	L	0	0	0	210.686712922296	210.886717603309
55490.25	100	227	6	0	45	11	4	4	0	0	0	stim005_stimuli_original_animals_fish_1.png	E	0	0	0	211.086726429407	211.286729403771
55590.25	100	228	6	0	45	12	6	15	0	1	0	stim007_stimuli_original_animals_fish_3.png	Y	0	0	0	211.486737254541	211.686734621413
55690.25	100	229	6	0	45	13	9	6	0	0	0	stim010_stimuli_original_vehicles_boats_2.png	G	0	0	0	211.886747591896	212.086742764572
55790.25	100	230	6	0	45	14	14	15	0	1	0	stim015_stimuli_original_vehicles_planes_3.png	Y	0	0	0	212.286747689592	212.486757490551
55890.5	100	231	6	0	45	15	10	11	0	0	0	stim011_stimuli_original_vehicles_boats_3.png	R	d	212.679292338202	0	212.687060350785	212.886777824257
55990.25	100	232	6	0	45	16	1	0	0	0	0	stim002_stimuli_original_animals_birds_2.png	A	0	0	0	213.086774459807	213.286804984789
56090.5	100	233	6	0	45	17	13	7	0	0	0	stim014_stimuli_original_vehicles_planes_2.png	J	0	0	0	213.486811372451	213.68681507837
56190.5	100	234	6	0	45	18	7	13	0	0	0	stim008_stimuli_original_animals_fish_4.png	U	d	213.8793491947	0	213.886821953813	214.08682492841
56290.5	100	235	6	0	45	19	0	1	0	0	0	stim001_stimuli_original_animals_birds_1.png	B	0	0	0	214.286812542705	214.486809909577
56390.5	100	236	6	0	45	20	11	10	0	0	0	stim012_stimuli_original_vehicles_boats_4.png	Q	0	0	0	214.686814590823	214.886814883444
56490.5	100	237	6	0	45	21	15	14	1	0	0	stim016_stimuli_original_vehicles_planes_4.png	V	0	0	0	215.086833461653	215.286830828525
56590.5	100	238	6	0	45	22	6	9	0	0	0	stim007_stimuli_original_animals_fish_3.png	L	0	0	0	215.486837460194	215.686837021261
56690.5	100	239	6	0	45	23	15	6	1	0	1	stim016_stimuli_original_vehicles_planes_4.png	G	0	0	0	215.886844140477	216.08684857795
56790.5	100	240	6	0	45	24	4	4	0	0	0	stim005_stimuli_original_animals_fish_1.png	E	0	0	0	216.286853746511	216.486856964882
56890.5	100	241	6	0	45	25	9	0	0	0	0	stim010_stimuli_original_vehicles_boats_2.png	A	0	0	0	216.686870179372	216.886901679449
56990.5	100	242	6	0	45	26	8	12	0	0	0	stim009_stimuli_original_vehicles_boats_1.png	T	0	0	0	217.086898558773	217.286905677989
57090.5	100	243	6	0	45	27	1	5	0	0	0	stim002_stimuli_original_animals_birds_2.png	F	0	0	0	217.486909383908	217.686910164077
57190.5	100	244	6	0	45	28	2	15	0	0	0	stim003_stimuli_original_animals_birds_3.png	Y	d	218.078675110359	1	217.886911188019	218.087265248178
57290.5	100	245	6	0	45	29	12	1	0	1	0	stim013_stimuli_original_vehicles_planes_1.png	B	0	0	0	218.286944931373	218.486926206853
57390.5	100	246	6	0	45	30	13	2	0	0	0	stim014_stimuli_original_vehicles_planes_2.png	C	0	0	0	218.686952830758	218.886936300434
57490.5	100	247	6	0	45	31	10	1	0	1	0	stim011_stimuli_original_vehicles_boats_3.png	B	0	0	0	219.086960973917	219.286967849359
57590.5	100	248	6	0	45	32	5	8	0	0	0	stim006_stimuli_original_animals_fish_2.png	K	0	0	0	219.486972042825	219.686956244055
57690.5	100	249	6	0	45	33	15	7	0	0	0	stim016_stimuli_original_vehicles_planes_4.png	J	0	0	0	219.886951660505	220.086953659775
57790.5	100	250	6	0	45	34	14	11	0	0	0	stim015_stimuli_original_vehicles_planes_3.png	R	0	0	0	220.28699808172	220.486980332527
57890.5	100	251	6	0	45	35	3	3	0	0	0	stim004_stimuli_original_animals_birds_4.png	D	0	0	0	220.687005981104	220.887007736601
59632.25	100	252	7	1	36	0	14	1	0	0	0	stim015_stimuli_original_vehicles_planes_3.png	B	0	0	0	227.653833757155	227.853840388823
59732.25	100	253	7	1	36	1	4	9	0	0	0	stim005_stimuli_original_animals_fish_1.png	L	0	0	0	228.053858235711	228.253846337786
59832.25	100	254	7	1	36	2	9	8	0	0	0	stim010_stimuli_original_vehicles_boats_2.png	K	0	0	0	228.453856626526	228.653864964843
59932.25	100	255	7	1	36	3	5	3	0	0	0	stim006_stimuli_original_animals_fish_2.png	D	0	0	0	228.85386988963	229.053867744282
60032.25	100	256	7	1	36	4	0	11	0	0	0	stim001_stimuli_original_animals_birds_1.png	R	0	0	0	229.253881202545	229.454208931187
60132.25	100	257	7	1	36	5	1	13	0	0	0	stim002_stimuli_original_animals_birds_2.png	U	0	0	0	229.653891052352	229.853895002045
60232.25	100	258	7	1	36	6	10	2	0	0	0	stim011_stimuli_original_vehicles_boats_3.png	C	0	0	0	230.053901146166	230.253899244359
60332.25	100	259	7	1	36	7	7	5	0	0	0	stim008_stimuli_original_animals_fish_4.png	F	0	0	0	230.453910508426	230.653916652314
60432.25	100	260	7	1	36	8	0	12	1	0	0	stim001_stimuli_original_animals_birds_1.png	T	0	0	0	230.853924503084	231.053923332831
60532.25	100	261	7	1	36	9	6	15	0	0	0	stim007_stimuli_original_animals_fish_3.png	Y	0	0	0	231.253927526297	231.453936108388
60632.25	100	262	7	1	36	10	0	13	1	1	0	stim001_stimuli_original_animals_birds_1.png	U	0	0	0	231.65394298383	231.853947177297
60732.25	100	263	7	1	36	11	11	0	0	0	0	stim012_stimuli_original_vehicles_boats_4.png	A	0	0	0	232.053956490709	232.253959221533
60832.25	100	264	7	1	36	12	15	13	0	1	1	stim016_stimuli_original_vehicles_planes_4.png	U	0	0	0	232.453978287289	232.653967120918
60932.25	100	265	7	1	36	13	12	10	0	0	0	stim013_stimuli_original_vehicles_planes_1.png	Q	0	0	0	232.853976190556	233.05397599563
61032.25	100	266	7	1	36	14	13	4	0	0	0	stim014_stimuli_original_vehicles_planes_2.png	E	0	0	0	233.253983846167	233.453999986406
61132.25	100	267	7	1	36	15	3	7	0	0	0	stim004_stimuli_original_animals_birds_4.png	J	0	0	0	233.653996134177	233.853999108775
61232.25	100	268	7	1	36	16	2	14	0	0	0	stim003_stimuli_original_animals_birds_3.png	V	0	0	0	234.054005984217	234.254011640558
61332.25	100	269	7	1	36	17	8	6	0	0	0	stim009_stimuli_original_vehicles_boats_1.png	G	0	0	0	234.454019735102	234.654019539943
61432.25	100	270	7	1	36	18	6	8	0	0	0	stim007_stimuli_original_animals_fish_3.png	K	0	0	0	234.854032266885	235.054027926875
61532.25	100	271	7	1	36	19	14	2	0	0	0	stim015_stimuli_original_vehicles_planes_3.png	C	0	0	0	235.254042360466	235.454035094939
61632.25	100	272	7	1	36	20	7	3	0	0	0	stim008_stimuli_original_animals_fish_4.png	D	0	0	0	235.654072202742	235.854072739137
61732.25	100	273	7	1	36	21	4	13	0	0	0	stim005_stimuli_original_animals_fish_1.png	U	0	0	0	236.054079370806	236.254082345171
61832.25	100	274	7	1	36	22	10	12	0	0	0	stim011_stimuli_original_vehicles_boats_3.png	T	0	0	0	236.454077030299	236.654099021805
61932.25	100	275	7	1	36	23	13	15	1	0	0	stim014_stimuli_original_vehicles_planes_2.png	Y	0	0	0	236.854101996403	237.054088147823
62032.25	100	276	7	1	36	24	0	11	0	0	0	stim001_stimuli_original_animals_birds_1.png	R	0	0	0	237.25413549575	237.454102386488
62132.25	100	277	7	1	36	25	13	0	1	1	0	stim014_stimuli_original_vehicles_planes_2.png	A	0	0	0	237.65410877415	237.854125889717
62232.25	100	278	7	1	36	26	15	6	0	0	0	stim016_stimuli_original_vehicles_planes_4.png	G	0	0	0	238.05413349648	238.254119648132
62332.25	100	279	7	1	36	27	12	0	0	1	1	stim013_stimuli_original_vehicles_planes_1.png	A	0	0	0	238.454150660662	238.654136812314
62432.25	100	280	7	1	36	28	5	7	0	0	0	stim006_stimuli_original_animals_fish_2.png	J	0	0	0	238.854135885835	239.054136909777
62532.25	100	281	7	1	36	29	2	10	0	0	0	stim003_stimuli_original_animals_birds_3.png	Q	0	0	0	239.25415036804	239.45414578449
62632.25	100	282	7	1	36	30	13	1	0	0	0	stim014_stimuli_original_vehicles_planes_2.png	B	0	0	0	239.654155341908	239.854163923999
62732.25	100	283	7	1	36	31	11	0	0	0	0	stim012_stimuli_original_vehicles_boats_4.png	A	d	240.246082713827	1	240.054314403096	240.254166459432
62832.25	100	284	7	1	36	32	3	5	0	0	0	stim004_stimuli_original_animals_birds_4.png	F	0	0	0	240.454179673921	240.654178991215
62932.25	100	285	7	1	36	33	8	9	0	0	0	stim009_stimuli_original_vehicles_boats_1.png	L	0	0	0	240.854189523961	241.054191767005
63032.25	100	286	7	1	36	34	9	4	0	0	0	stim010_stimuli_original_vehicles_boats_2.png	E	0	0	0	241.254201324191	241.45420503011
63132.25	100	287	7	1	36	35	1	14	0	0	0	stim002_stimuli_original_animals_birds_2.png	V	0	0	0	241.654210198903	241.854216099018
64990.5	100	288	8	0	8	0	15	6	0	0	0	stim016_stimuli_original_vehicles_planes_4.png	G	0	0	0	249.08774018893	249.287738531129
65090.5	100	289	8	0	8	1	4	9	0	0	0	stim005_stimuli_original_animals_fish_1.png	L	0	0	0	249.487747600768	249.687750331359
65190.5	100	290	8	0	8	2	13	15	0	0	0	stim014_stimuli_original_vehicles_planes_2.png	Y	0	0	0	249.887794021983	250.08776091272
65290.5	100	291	8	0	8	3	8	12	0	0	0	stim009_stimuli_original_vehicles_boats_1.png	T	0	0	0	250.28777120146	250.487771006534
65390.5	100	292	8	0	8	4	7	7	0	0	0	stim008_stimuli_original_animals_fish_4.png	J	0	0	0	250.687783977017	250.887787439162
65490.5	100	293	8	0	8	5	9	5	1	0	0	stim010_stimuli_original_vehicles_boats_2.png	F	0	0	0	251.087815038394	251.287815574789
65590.5	100	294	8	0	8	6	0	3	0	0	0	stim001_stimuli_original_animals_birds_1.png	D	0	0	0	251.48782708263	251.687827619025
65690.75	100	295	8	0	8	7	9	10	1	0	1	stim010_stimuli_original_vehicles_boats_2.png	Q	0	0	0	251.888266280992	252.087819427019
65790.5	100	296	8	0	8	8	5	1	0	0	0	stim006_stimuli_original_animals_fish_2.png	B	0	0	0	252.287824352039	252.487824888434
65890.5	100	297	8	0	8	9	14	11	0	0	0	stim015_stimuli_original_vehicles_planes_3.png	R	0	0	0	252.687832738971	252.887841321062
65990.5	100	298	8	0	8	10	11	2	0	0	0	stim012_stimuli_original_vehicles_boats_4.png	C	0	0	0	253.087847465184	253.287849708227
66090.5	100	299	8	0	8	11	1	14	0	0	0	stim002_stimuli_original_animals_birds_2.png	V	0	0	0	253.487865360687	253.687880281825
66190.5	100	300	8	0	8	12	6	3	0	1	0	stim007_stimuli_original_animals_fish_3.png	D	0	0	0	253.887879842892	254.087872333592
66290.5	100	301	8	0	8	13	3	4	0	0	0	stim004_stimuli_original_animals_birds_4.png	E	d	254.280464232666	0	254.287879696814	254.487882671179
66390.5	100	302	8	0	8	14	12	3	0	1	0	stim013_stimuli_original_vehicles_planes_1.png	D	0	0	0	254.687883938896	254.887894715415
66490.5	100	303	8	0	8	15	9	8	0	0	0	stim010_stimuli_original_vehicles_boats_2.png	K	0	0	0	255.087907198351	255.287924801465
66590.5	100	304	8	0	8	16	2	13	0	0	0	stim003_stimuli_original_animals_birds_3.png	U	0	0	0	255.487930945354	255.687933432404
66690.75	100	305	8	0	8	17	10	0	0	0	0	stim011_stimuli_original_vehicles_boats_3.png	A	0	0	0	255.887959568761	256.087919388898
66790.5	100	306	8	0	8	18	0	10	0	0	0	stim001_stimuli_original_animals_birds_1.png	Q	0	0	0	256.287930165185	256.487928507384
66890.75	100	307	8	0	8	19	13	2	0	0	0	stim014_stimuli_original_vehicles_planes_2.png	C	0	0	0	256.68794757314	256.887966395356
66990.75	100	308	8	0	8	20	8	9	0	0	0	stim009_stimuli_original_vehicles_boats_1.png	L	0	0	0	257.087974002119	257.288154226029
67090.75	100	309	8	0	8	21	3	12	1	0	0	stim004_stimuli_original_animals_birds_4.png	T	0	0	0	257.487958983518	257.687967321835
67190.75	100	310	8	0	8	22	4	3	0	0	0	stim005_stimuli_original_animals_fish_1.png	D	0	0	0	257.887975416379	258.087972783251
67290.75	100	311	8	0	8	23	3	6	1	0	1	stim004_stimuli_original_animals_birds_4.png	G	d	258.479745774996	1	258.287981121335	258.487979463534
67390.75	100	312	8	0	8	24	14	1	0	0	0	stim015_stimuli_original_vehicles_planes_3.png	B	0	0	0	258.687987801852	258.888004917186
67490.75	100	313	8	0	8	25	2	11	0	0	0	stim003_stimuli_original_animals_birds_3.png	R	0	0	0	259.088003990706	259.28800672153
67590.75	100	314	8	0	8	26	11	14	0	0	0	stim012_stimuli_original_vehicles_boats_4.png	V	0	0	0	259.488011890091	259.688053874066
67690.75	100	315	8	0	8	27	1	5	0	0	0	stim002_stimuli_original_animals_birds_2.png	F	0	0	0	259.888047340093	260.088050070684
67790.75	100	316	8	0	8	28	10	9	0	1	0	stim011_stimuli_original_vehicles_boats_3.png	L	0	0	0	260.288033296587	260.488037490053
67890.75	100	317	8	0	8	29	3	0	0	0	0	stim004_stimuli_original_animals_birds_4.png	A	0	0	0	260.688074354082	260.88805611711
67990.75	100	318	8	0	8	30	5	9	0	1	0	stim006_stimuli_original_animals_fish_2.png	L	0	0	0	261.088056409732	261.288059628103
68090.75	100	319	8	0	8	31	7	7	0	0	0	stim008_stimuli_original_animals_fish_4.png	J	0	0	0	261.48807040439	261.688070697011
68190.75	100	320	8	0	8	32	12	8	0	0	0	stim013_stimuli_original_vehicles_planes_1.png	K	0	0	0	261.888077084906	262.088086642092
68290.75	100	321	8	0	8	33	15	13	0	0	0	stim016_stimuli_original_vehicles_planes_4.png	U	0	0	0	262.288110828027	262.488094297703
68390.75	100	322	8	0	8	34	9	4	0	0	0	stim010_stimuli_original_vehicles_boats_2.png	E	d	262.688302072231	0	262.688127016881	262.88810999901
68490.75	100	323	8	0	8	35	6	15	0	0	0	stim007_stimuli_original_animals_fish_3.png	Y	0	0	0	263.088138817344	263.288136915769
71932.5	100	324	9	1	15	0	10	13	0	0	0	stim011_stimuli_original_vehicles_boats_3.png	U	0	0	0	276.855172807351	277.055143355159
72032.5	100	325	9	1	15	1	1	9	0	0	0	stim002_stimuli_original_animals_birds_2.png	L	0	0	0	277.255146573531	277.455151742091
72132.5	100	326	9	1	15	2	11	1	0	0	0	stim012_stimuli_original_vehicles_boats_4.png	B	0	0	0	277.655161055736	277.85516329878
72232.5	100	327	9	1	15	3	12	0	0	0	0	stim013_stimuli_original_vehicles_planes_1.png	A	0	0	0	278.055171637097	278.255186314462
72332.5	100	328	9	1	15	4	5	5	1	0	0	stim006_stimuli_original_animals_fish_2.png	F	0	0	0	278.455216351664	278.655181779526
72432.5	100	329	9	1	15	5	8	3	0	0	0	stim009_stimuli_original_vehicles_boats_1.png	D	0	0	0	278.855193043593	279.055207476951
72532.5	100	330	9	1	15	6	5	8	1	0	0	stim006_stimuli_original_animals_fish_2.png	K	0	0	0	279.255225323839	279.455219521187
72632.5	100	331	9	1	15	7	6	15	0	0	0	stim007_stimuli_original_animals_fish_3.png	Y	0	0	0	279.65524126892	279.855231809197
72732.5	100	332	9	1	15	8	14	2	0	0	0	stim015_stimuli_original_vehicles_planes_3.png	C	0	0	0	280.055253069382	280.255271891598
72832.5	100	333	9	1	15	9	3	4	0	0	0	stim004_stimuli_original_animals_birds_4.png	E	0	0	0	280.455248290673	280.655270038638
72932.5	100	334	9	1	15	10	7	12	0	0	0	stim008_stimuli_original_animals_fish_4.png	T	0	0	0	280.855250338791	281.055249899859
73032.5	100	335	9	1	15	11	13	15	0	1	0	stim014_stimuli_original_vehicles_planes_2.png	Y	0	0	0	281.255260188598	281.455256824149
73132.5	100	336	9	1	15	12	4	14	0	0	0	stim005_stimuli_original_animals_fish_1.png	V	0	0	0	281.655271989061	281.855272281682
73232.5	100	337	9	1	15	13	5	15	0	1	1	stim006_stimuli_original_animals_fish_2.png	Y	0	0	0	282.055285739945	282.255290664732
73332.5	100	338	9	1	15	14	2	11	0	0	0	stim003_stimuli_original_animals_birds_3.png	R	0	0	0	282.455297540175	282.655298808124
73432.5	100	339	9	1	15	15	9	10	0	0	0	stim010_stimuli_original_vehicles_boats_2.png	Q	0	0	0	282.855315435911	283.055331819924
73532.5	100	340	9	1	15	16	15	6	0	0	0	stim016_stimuli_original_vehicles_planes_4.png	G	0	0	0	283.255336500937	283.455339963082
73632.5	100	341	9	1	15	17	0	7	0	0	0	stim001_stimuli_original_animals_birds_1.png	J	0	0	0	283.655329528032	283.8553290891
73732.5	100	342	9	1	15	18	7	0	0	0	0	stim008_stimuli_original_animals_fish_4.png	A	0	0	0	284.055336452322	284.255366489524
73832.5	100	343	9	1	15	19	6	15	0	0	0	stim007_stimuli_original_animals_fish_3.png	Y	d	284.647136555752	0	284.455372145865	284.655373169808
73932.5	100	344	9	1	15	20	10	9	0	0	0	stim011_stimuli_original_vehicles_boats_3.png	L	0	0	0	284.855357614812	285.055366928456
74032.5	100	345	9	1	15	21	11	2	0	0	0	stim012_stimuli_original_vehicles_boats_4.png	C	0	0	0	285.255373560125	285.455393844983
74132.5	100	346	9	1	15	22	15	5	1	0	0	stim016_stimuli_original_vehicles_planes_4.png	F	0	0	0	285.655386579456	285.85540662054
74232.5	100	347	9	1	15	23	14	4	0	0	0	stim015_stimuli_original_vehicles_planes_3.png	E	0	0	0	286.055829191115	286.255393796135
74332.5	100	348	9	1	15	24	15	13	1	0	0	stim016_stimuli_original_vehicles_planes_4.png	U	0	0	0	286.455400915351	286.655403402401
74432.5	100	349	9	1	15	25	12	7	0	0	0	stim013_stimuli_original_vehicles_planes_1.png	J	0	0	0	286.85540418257	287.05540861981
74532.5	100	350	9	1	15	26	4	3	0	0	0	stim005_stimuli_original_animals_fish_1.png	D	d	287.447192583233	0	287.255429392448	287.455428222194
74632.5	100	351	9	1	15	27	2	14	0	0	0	stim003_stimuli_original_animals_birds_3.png	V	0	0	0	287.655438510934	287.855462452862
74732.5	100	352	9	1	15	28	15	6	0	0	0	stim016_stimuli_original_vehicles_planes_4.png	G	0	0	0	288.055470547406	288.255454748636
74832.5	100	353	9	1	15	29	8	5	0	1	0	stim009_stimuli_original_vehicles_boats_1.png	F	0	0	0	288.455461136298	288.655484834686
74932.5	100	354	9	1	15	30	3	8	0	0	0	stim004_stimuli_original_animals_birds_4.png	K	0	0	0	288.855491953902	289.05549809779
75032.5	100	355	9	1	15	31	5	5	0	1	1	stim006_stimuli_original_animals_fish_2.png	F	0	0	0	289.255479129497	289.45548015344
75132.5	100	356	9	1	15	32	0	12	0	0	0	stim001_stimuli_original_animals_birds_1.png	T	0	0	0	289.655507265124	289.855488784378
75232.5	100	357	9	1	15	33	1	11	0	0	0	stim002_stimuli_original_animals_birds_2.png	R	0	0	0	290.055496634915	290.255495220888
75332.5	100	358	9	1	15	34	9	1	0	0	0	stim010_stimuli_original_vehicles_boats_2.png	B	0	0	0	290.455515018199	290.655515554594
75432.5	100	359	9	1	15	35	13	10	0	0	0	stim014_stimuli_original_vehicles_planes_2.png	Q	0	0	0	290.855514628114	291.055523453979
77932.5	100	360	10	0	11	0	9	14	0	0	0	stim010_stimuli_original_vehicles_boats_2.png	V	0	0	0	300.855808174703	301.055781404488
78032.5	100	361	10	0	11	1	11	10	0	0	0	stim012_stimuli_original_vehicles_boats_4.png	Q	0	0	0	301.255794862751	301.455797837116
78132.5	100	362	10	0	11	2	3	7	0	0	0	stim004_stimuli_original_animals_birds_4.png	J	0	0	0	301.655802274588	301.855799397686
78232.5	100	363	10	0	11	3	13	0	0	0	0	stim014_stimuli_original_vehicles_planes_2.png	A	0	0	0	302.055829678662	302.255837529432
78332.5	100	364	10	0	11	4	7	13	0	0	0	stim008_stimuli_original_animals_fish_4.png	U	0	0	0	302.455833433429	302.655840065097
78432.5	100	365	10	0	11	5	2	3	0	0	0	stim003_stimuli_original_animals_birds_3.png	D	0	0	0	302.855860593729	303.05587210157
78532.5	100	366	10	0	11	6	14	1	0	0	0	stim015_stimuli_original_vehicles_planes_3.png	B	0	0	0	303.255873857066	303.455877075205
78632.5	100	367	10	0	11	7	8	6	1	0	0	stim009_stimuli_original_vehicles_boats_1.png	G	0	0	0	303.655860301107	303.855855230009
78732.5	100	368	10	0	11	8	5	9	0	1	0	stim006_stimuli_original_animals_fish_2.png	L	0	0	0	304.055864299648	304.255863860715
78832.5	100	369	10	0	11	9	8	8	1	0	1	stim009_stimuli_original_vehicles_boats_1.png	K	0	0	0	304.455884633353	304.655882975552
78932.5	100	370	10	0	11	10	4	9	0	1	0	stim005_stimuli_original_animals_fish_1.png	L	0	0	0	304.855885218596	305.055885510985
79032.5	100	371	10	0	11	11	1	11	0	0	0	stim002_stimuli_original_animals_birds_2.png	R	0	0	0	305.255894580856	305.455898286775
79132.5	100	372	10	0	11	12	12	15	0	0	0	stim013_stimuli_original_vehicles_planes_1.png	Y	0	0	0	305.655907356413	305.856134879403
79232.5	100	373	10	0	11	13	0	9	0	0	0	stim001_stimuli_original_animals_birds_1.png	L	0	0	0	306.05592013197	306.255924813217
79332.5	100	374	10	0	11	14	8	2	0	0	0	stim009_stimuli_original_vehicles_boats_1.png	C	0	0	0	306.455928275129	306.655931249727
79432.5	100	375	10	0	11	15	15	5	0	0	0	stim016_stimuli_original_vehicles_planes_4.png	F	0	0	0	306.855936906068	307.055941099534
79532.5	100	376	10	0	11	16	6	12	0	0	0	stim007_stimuli_original_animals_fish_3.png	T	d	307.2486146749	0	307.255949681625	307.455952412449
79632.5	100	377	10	0	11	17	10	4	0	0	0	stim011_stimuli_original_vehicles_boats_3.png	E	0	0	0	307.655967577361	307.855970551725
79732.5	100	378	10	0	11	18	4	10	0	0	0	stim005_stimuli_original_animals_fish_1.png	Q	0	0	0	308.055975720519	308.25597479404
79832.5	100	379	10	0	11	19	12	6	0	0	0	stim013_stimuli_original_vehicles_planes_1.png	G	0	0	0	308.455992640927	308.655989764025
79932.5	100	380	10	0	11	20	5	15	0	0	0	stim006_stimuli_original_animals_fish_2.png	Y	0	0	0	308.855993957492	309.05600058916
80032.5	100	381	10	0	11	21	2	8	0	0	0	stim003_stimuli_original_animals_birds_3.png	K	0	0	0	309.256006976822	309.456017265795
80132.5	100	382	10	0	11	22	9	0	0	0	0	stim010_stimuli_original_vehicles_boats_2.png	A	d	309.648559183814	0	309.656047059223	309.856031260453
80232.5	100	383	10	0	11	23	15	12	0	0	0	stim016_stimuli_original_vehicles_planes_4.png	T	0	0	0	310.056053251959	310.256057689199
80332.5	100	384	10	0	11	24	11	1	0	0	0	stim012_stimuli_original_vehicles_boats_4.png	B	0	0	0	310.456063101767	310.656070952537
80432.5	100	385	10	0	11	25	9	4	1	0	0	stim010_stimuli_original_vehicles_boats_2.png	E	0	0	0	310.856060517486	311.05606861203
80532.5	100	386	10	0	11	26	8	8	0	1	0	stim009_stimuli_original_vehicles_boats_1.png	K	0	0	0	311.256072073942	311.456072854344
80632.5	100	387	10	0	11	27	9	5	1	0	1	stim010_stimuli_original_vehicles_boats_2.png	F	0	0	0	311.656078510685	311.856082947925
80732.5	100	388	10	0	11	28	6	8	0	1	0	stim007_stimuli_original_animals_fish_3.png	K	0	0	0	312.056087872945	312.256091578864
80832.75	100	389	10	0	11	29	1	14	0	0	0	stim002_stimuli_original_animals_birds_2.png	V	d	312.647869447013	1	312.456103818025	312.656103866873
80932.75	100	390	10	0	11	30	3	2	0	0	0	stim004_stimuli_original_animals_birds_4.png	C	0	0	0	312.856111473637	313.056109571829
81032.75	100	391	10	0	11	31	13	7	0	0	0	stim014_stimuli_original_vehicles_planes_2.png	J	0	0	0	313.256117910147	313.456121859839
81132.75	100	392	10	0	11	32	0	13	0	0	0	stim001_stimuli_original_animals_birds_1.png	U	0	0	0	313.656127760187	313.856122688856
81232.75	100	393	10	0	11	33	7	3	0	0	0	stim008_stimuli_original_animals_fish_4.png	D	0	0	0	314.056129320525	314.256131319795
81332.75	100	394	10	0	11	34	10	11	0	0	0	stim011_stimuli_original_vehicles_boats_3.png	R	0	0	0	314.456151848426	314.656150678173
81432.75	100	395	10	0	11	35	14	9	0	0	0	stim015_stimuli_original_vehicles_planes_3.png	L	0	0	0	314.856187054655	315.056164429057
83686.75	100	396	11	1	46	0	13	6	0	0	0	stim014_stimuli_original_vehicles_planes_2.png	G	0	0	0	323.873064275132	324.073088948615
83786.75	100	397	11	1	46	1	6	1	0	0	0	stim007_stimuli_original_animals_fish_3.png	B	0	0	0	324.273073637392	324.473075880436
83886.75	100	398	11	1	46	2	1	14	0	0	0	stim002_stimuli_original_animals_birds_2.png	V	0	0	0	324.673114938661	324.873114987509
83986.75	100	399	11	1	46	3	3	9	0	0	0	stim004_stimuli_original_animals_birds_4.png	L	0	0	0	325.073101870483	325.273097043158
84086.75	100	400	11	1	46	4	4	3	0	0	0	stim005_stimuli_original_animals_fish_1.png	D	0	0	0	325.473100017523	325.673105430091
84187	100	401	11	1	46	5	8	6	0	1	0	stim009_stimuli_original_vehicles_boats_1.png	G	0	0	0	325.87315424066	326.073151851306
84286.75	100	402	11	1	46	6	0	4	0	0	0	stim001_stimuli_original_animals_birds_1.png	E	d	326.464922649087	0	326.273152875481	326.47315609362
84387	100	403	11	1	46	7	13	6	1	1	1	stim014_stimuli_original_vehicles_planes_2.png	G	0	0	0	326.673164919717	326.873170088278
84487	100	404	11	1	46	8	11	10	0	0	0	stim012_stimuli_original_vehicles_boats_4.png	Q	d	327.264937716536	1	327.073175744852	327.27318481449
84587	100	405	11	1	46	9	13	12	1	0	0	stim014_stimuli_original_vehicles_planes_2.png	T	0	0	0	327.473185350886	327.673187106149
84687	100	406	11	1	46	10	7	2	0	0	0	stim008_stimuli_original_animals_fish_4.png	C	0	0	0	327.873184473021	328.073174037971
84787	100	407	11	1	46	11	10	7	0	0	0	stim011_stimuli_original_vehicles_boats_3.png	J	0	0	0	328.273182132514	328.473179499386
84887	100	408	11	1	46	12	12	13	0	0	0	stim013_stimuli_original_vehicles_planes_1.png	U	0	0	0	328.673186131055	328.873188617872
84987	100	409	11	1	46	13	15	5	0	0	0	stim016_stimuli_original_vehicles_planes_4.png	F	0	0	0	329.073205489432	329.273203587858
85087	100	410	11	1	46	14	5	15	0	0	0	stim006_stimuli_original_animals_fish_2.png	Y	0	0	0	329.473208756652	329.673210755689
85187	100	411	11	1	46	15	9	11	0	0	0	stim010_stimuli_original_vehicles_boats_2.png	R	0	0	0	329.873630644288	330.073261321755
85287	100	412	11	1	46	16	14	0	0	0	0	stim015_stimuli_original_vehicles_planes_3.png	A	0	0	0	330.273244791664	330.473242889857
85387	100	413	11	1	46	17	2	8	0	0	0	stim003_stimuli_original_animals_birds_3.png	K	0	0	0	330.67325391015	330.873244450195
85487	100	414	11	1	46	18	8	2	0	0	0	stim009_stimuli_original_vehicles_boats_1.png	C	0	0	0	331.073256933363	331.273255519103
85587	100	415	11	1	46	19	0	14	0	0	0	stim001_stimuli_original_animals_birds_1.png	V	0	0	0	331.473278729944	331.673295601504
85687	100	416	11	1	46	20	11	9	0	0	0	stim012_stimuli_original_vehicles_boats_4.png	L	0	0	0	331.873306377791	332.073307889514
85787	100	417	11	1	46	21	15	5	0	0	0	stim016_stimuli_original_vehicles_planes_4.png	F	d	332.473479385022	0	332.273311839206	332.473318226868
85887	100	418	11	1	46	22	5	15	0	0	0	stim006_stimuli_original_animals_fish_2.png	Y	0	0	0	332.673302184325	332.873300038744
85987	100	419	11	1	46	23	13	12	0	0	0	stim014_stimuli_original_vehicles_planes_2.png	T	0	0	0	333.07330471999	333.273307938129
86087	100	420	11	1	46	24	7	10	0	0	0	stim008_stimuli_original_animals_fish_4.png	Q	0	0	0	333.473321152618	333.673324614763
86187	100	421	11	1	46	25	2	7	0	0	0	stim003_stimuli_original_animals_birds_3.png	J	0	0	0	333.873348313151	334.073338853195
86287	100	422	11	1	46	26	12	13	0	1	0	stim013_stimuli_original_vehicles_planes_1.png	U	0	0	0	334.273352555232	334.473369670799
86387	100	423	11	1	46	27	10	11	0	0	0	stim011_stimuli_original_vehicles_boats_3.png	R	0	0	0	334.673377765343	334.873380495934
86487	100	424	11	1	46	28	6	13	1	1	1	stim007_stimuli_original_animals_fish_3.png	U	0	0	0	335.073398830369	335.273796044756
86587	100	425	11	1	46	29	4	0	0	0	0	stim005_stimuli_original_animals_fish_1.png	A	0	0	0	335.473367720377	335.673370450968
86687	100	426	11	1	46	30	6	8	1	0	0	stim007_stimuli_original_animals_fish_3.png	K	0	0	0	335.873379520606	336.073379569454
86787	100	427	11	1	46	31	3	4	0	0	0	stim004_stimuli_original_animals_birds_4.png	E	0	0	0	336.273390101967	336.473393807886
86887	100	428	11	1	46	32	9	3	0	0	0	stim010_stimuli_original_vehicles_boats_2.png	D	0	0	0	336.67342920904	336.873434865382
86987	100	429	11	1	46	33	14	1	0	0	0	stim015_stimuli_original_vehicles_planes_3.png	B	0	0	0	337.073445154121	337.273430818226
87087	100	430	11	1	46	34	1	6	0	0	0	stim002_stimuli_original_animals_birds_2.png	G	d	337.665201128228	0	337.473437449895	337.673447250854
87187	100	431	11	1	46	35	6	13	0	0	0	stim007_stimuli_original_animals_fish_3.png	U	0	0	0	337.873456564499	338.073458807543
88787	100	432	12	0	29	0	5	8	0	0	0	stim006_stimuli_original_animals_fish_2.png	K	0	0	0	344.273611724842	344.473609579261
88887	100	433	12	0	29	1	13	3	0	0	0	stim014_stimuli_original_vehicles_planes_2.png	D	0	0	0	344.67361913668	344.873618453974
88987	100	434	12	0	29	2	1	9	0	0	0	stim002_stimuli_original_animals_birds_2.png	L	0	0	0	345.073637763737	345.273637812352
89087	100	435	12	0	29	3	15	4	0	0	0	stim016_stimuli_original_vehicles_planes_4.png	E	0	0	0	345.473646394443	345.673648393713
89187	100	436	12	0	29	4	12	14	0	0	0	stim013_stimuli_original_vehicles_planes_1.png	V	0	0	0	345.873650636757	346.074043950066
89287	100	437	12	0	29	5	0	10	0	0	0	stim001_stimuli_original_animals_birds_1.png	Q	0	0	0	346.273660486564	346.473686622921
89387	100	438	12	0	29	6	2	6	0	0	0	stim003_stimuli_original_animals_birds_3.png	G	0	0	0	346.673664972652	346.873699154938
89487	100	439	12	0	29	7	7	12	1	1	0	stim008_stimuli_original_animals_fish_4.png	T	0	0	0	347.073689207435	347.273682429455
89587	100	440	12	0	29	8	8	11	0	0	0	stim009_stimuli_original_vehicles_boats_1.png	R	0	0	0	347.473702714546	347.673708370887
89687	100	441	12	0	29	9	7	12	1	1	1	stim008_stimuli_original_animals_fish_4.png	T	0	0	0	347.873729631072	348.073712613201
89787	100	442	12	0	29	10	6	7	0	0	0	stim007_stimuli_original_animals_fish_3.png	J	0	0	0	348.273729728535	348.473747819196
89887	100	443	12	0	29	11	9	15	0	0	0	stim010_stimuli_original_vehicles_boats_2.png	Y	0	0	0	348.673761765007	348.873754743487
89987	100	444	12	0	29	12	14	0	0	0	0	stim015_stimuli_original_vehicles_planes_3.png	A	0	0	0	349.073746746406	349.273763374193
90087	100	445	12	0	29	13	7	1	0	0	0	stim008_stimuli_original_animals_fish_4.png	B	0	0	0	349.473751720041	349.673746161396
90187	100	446	12	0	29	14	11	13	0	0	0	stim012_stimuli_original_vehicles_boats_4.png	U	d	350.065519640921	1	349.873756937683	350.073779904516
90287	100	447	12	0	29	15	4	5	0	0	0	stim005_stimuli_original_animals_fish_1.png	F	0	0	0	350.273772151442	350.473772200057
90387	100	448	12	0	29	16	10	12	0	0	0	stim011_stimuli_original_vehicles_boats_3.png	T	0	0	0	350.673780782148	350.873780343449
90487	100	449	12	0	29	17	3	2	0	0	0	stim004_stimuli_original_animals_birds_4.png	C	0	0	0	351.073790632188	351.273791899905
90587	100	450	12	0	29	18	2	3	0	0	0	stim003_stimuli_original_animals_birds_3.png	D	0	0	0	351.473798775347	351.673808088992
90687	100	451	12	0	29	19	12	10	0	0	0	stim013_stimuli_original_vehicles_planes_1.png	Q	0	0	0	351.873809844255	352.073814281728
90787	100	452	12	0	29	20	5	4	0	0	0	stim006_stimuli_original_animals_fish_2.png	E	0	0	0	352.273822132265	352.47382559441
90887	100	453	12	0	29	21	13	11	0	0	0	stim014_stimuli_original_vehicles_planes_2.png	R	d	352.865599805489	0	352.673834907822	352.87384080817
90987	100	454	12	0	29	22	1	7	0	0	0	stim002_stimuli_original_animals_birds_2.png	J	0	0	0	353.073844026309	353.273847000906
91087	100	455	12	0	29	23	0	14	0	0	0	stim001_stimuli_original_animals_birds_1.png	V	0	0	0	353.473849487724	353.673859776463
91187	100	456	12	0	29	24	15	9	0	0	0	stim016_stimuli_original_vehicles_planes_4.png	L	0	0	0	353.873870308977	354.0738659692
91287	100	457	12	0	29	25	7	6	0	0	0	stim008_stimuli_original_animals_fish_4.png	G	0	0	0	354.273876989493	354.473875575233
91387	100	458	12	0	29	26	12	7	1	1	0	stim013_stimuli_original_vehicles_planes_1.png	J	0	0	0	354.673885132652	354.873892495641
91487	100	459	12	0	29	27	11	8	0	0	0	stim012_stimuli_original_vehicles_boats_4.png	K	0	0	0	355.073895957787	355.273902101908
91587	100	460	12	0	29	28	12	7	1	1	1	stim013_stimuli_original_vehicles_planes_1.png	J	0	0	0	355.473905320046	355.673903418472
91687	100	461	12	0	29	29	6	2	0	0	0	stim007_stimuli_original_animals_fish_3.png	C	0	0	0	355.873919070931	356.073920582654
91787	100	462	12	0	29	30	10	0	0	0	0	stim011_stimuli_original_vehicles_boats_3.png	A	0	0	0	356.273928189417	356.473962615244
91887	100	463	12	0	29	31	14	12	0	0	0	stim015_stimuli_original_vehicles_planes_3.png	T	0	0	0	356.674229879165	356.873943939572
91987	100	464	12	0	29	32	4	15	0	0	0	stim005_stimuli_original_animals_fish_1.png	Y	0	0	0	357.073948133038	357.273953789379
92087	100	465	12	0	29	33	9	1	0	0	0	stim010_stimuli_original_vehicles_boats_2.png	B	0	0	0	357.473959933501	357.673958275467
92187	100	466	12	0	29	34	3	13	0	0	0	stim004_stimuli_original_animals_birds_4.png	U	0	0	0	357.873975391034	358.073974464554
92287	100	467	12	0	29	35	8	5	0	0	0	stim009_stimuli_original_vehicles_boats_1.png	F	0	0	0	358.273982315091	358.473981632385
94699.5	100	468	13	1	33	0	3	5	0	0	0	stim004_stimuli_original_animals_birds_4.png	F	0	0	0	367.924248896306	368.124244556529
94799.5	100	469	13	1	33	1	11	3	0	0	0	stim012_stimuli_original_vehicles_boats_4.png	D	0	0	0	368.32425850234	368.524256600766
94899.5	100	470	13	1	33	2	4	1	0	0	0	stim005_stimuli_original_animals_fish_1.png	B	0	0	0	368.724262744654	368.924263768829
94999.75	100	471	13	1	33	3	14	9	0	0	0	stim015_stimuli_original_vehicles_planes_3.png	L	0	0	0	369.124284541234	369.324304582318
95099.75	100	472	13	1	33	4	6	8	1	0	0	stim007_stimuli_original_animals_fish_3.png	K	0	0	0	369.524318772135	369.724318089429
95199.75	100	473	13	1	33	5	0	6	0	1	0	stim001_stimuli_original_animals_birds_1.png	G	0	0	0	369.924310336355	370.12431672425
95299.75	100	474	13	1	33	6	6	0	1	0	0	stim007_stimuli_original_animals_fish_3.png	A	0	0	0	370.324316529091	370.524334863527
95399.75	100	475	13	1	33	7	15	6	0	1	1	stim016_stimuli_original_vehicles_planes_4.png	G	0	0	0	370.724755727453	370.92433544877
95499.75	100	476	13	1	33	8	13	14	0	0	0	stim014_stimuli_original_vehicles_planes_2.png	V	0	0	0	371.124354514526	371.324332864257
95599.75	100	477	13	1	33	9	10	13	0	0	0	stim011_stimuli_original_vehicles_boats_3.png	U	0	0	0	371.524331937777	371.72433637525
95699.75	100	478	13	1	33	10	1	2	0	0	0	stim002_stimuli_original_animals_birds_2.png	C	0	0	0	371.924342762912	372.124359390698
95799.75	100	479	13	1	33	11	5	12	0	0	0	stim006_stimuli_original_animals_fish_2.png	T	0	0	0	372.324351393851	372.524352905573
95899.75	100	480	13	1	33	12	6	4	0	0	0	stim007_stimuli_original_animals_fish_3.png	E	0	0	0	372.724367095158	372.924370069755
95999.75	100	481	13	1	33	13	7	11	0	0	0	stim008_stimuli_original_animals_fish_4.png	R	0	0	0	373.124387672637	373.324390647234
96099.75	100	482	13	1	33	14	9	6	0	0	0	stim010_stimuli_original_vehicles_boats_2.png	G	0	0	0	373.524396303575	373.724396839971
96199.75	100	483	13	1	33	15	8	7	0	0	0	stim009_stimuli_original_vehicles_boats_1.png	J	0	0	0	373.924406397156	374.124408152653
96299.75	100	484	13	1	33	16	2	10	0	0	0	stim003_stimuli_original_animals_birds_3.png	Q	0	0	0	374.324415271869	374.52441849024
96399.75	100	485	13	1	33	17	12	15	0	0	0	stim013_stimuli_original_vehicles_planes_1.png	Y	0	0	0	374.724436093122	374.924456378212
96499.75	100	486	13	1	33	18	15	12	0	0	0	stim016_stimuli_original_vehicles_planes_4.png	T	0	0	0	375.124459108803	375.32446379005
96599.75	100	487	13	1	33	19	10	2	0	0	0	stim011_stimuli_original_vehicles_boats_3.png	C	0	0	0	375.524471396813	375.724476565607
96699.75	100	488	13	1	33	20	7	8	0	0	0	stim008_stimuli_original_animals_fish_4.png	K	0	0	0	375.924650938017	376.124492754461
96799.75	100	489	13	1	33	21	6	9	0	0	0	stim007_stimuli_original_animals_fish_3.png	L	0	0	0	376.32449402241	376.524499434978
96899.75	100	490	13	1	33	22	11	7	0	0	0	stim012_stimuli_original_vehicles_boats_4.png	J	d	376.916249021189	0	376.724486805499	376.92448709812
96999.75	100	491	13	1	33	23	4	6	0	0	0	stim005_stimuli_original_animals_fish_1.png	G	0	0	0	377.124499093508	377.324493047083
97099.75	100	492	13	1	33	24	12	5	0	0	0	stim013_stimuli_original_vehicles_planes_1.png	F	0	0	0	377.524498947198	377.724505335093
97199.75	100	493	13	1	33	25	2	1	0	0	0	stim003_stimuli_original_animals_birds_3.png	B	0	0	0	377.924514404731	378.124525912572
97299.75	100	494	13	1	33	26	13	10	0	0	0	stim014_stimuli_original_vehicles_planes_2.png	Q	d	378.51629061508	0	378.324530350044	378.524535762612
97399.75	100	495	13	1	33	27	14	13	0	0	0	stim015_stimuli_original_vehicles_planes_3.png	U	0	0	0	378.724541418953	378.92456170381
97499.75	100	496	13	1	33	28	6	15	1	0	0	stim007_stimuli_original_animals_fish_3.png	Y	0	0	0	379.124542979291	379.324548391858
97599.75	100	497	13	1	33	29	0	6	0	1	0	stim001_stimuli_original_animals_birds_1.png	G	0	0	0	379.524552829098	379.724555316148
97699.75	100	498	13	1	33	30	6	0	1	0	0	stim007_stimuli_original_animals_fish_3.png	A	0	0	0	379.924565117108	380.124571505003
97799.75	100	499	13	1	33	31	8	6	0	1	1	stim009_stimuli_original_vehicles_boats_1.png	G	0	0	0	380.324577405117	380.524578673067
97899.75	100	500	13	1	33	32	9	14	0	0	0	stim010_stimuli_original_vehicles_boats_2.png	V	0	0	0	380.724587011384	380.924593155272
97999.75	100	501	13	1	33	33	1	4	0	0	0	stim002_stimuli_original_animals_birds_2.png	E	0	0	0	381.124603444012	381.324836330721
98099.75	100	502	13	1	33	34	3	11	0	0	0	stim004_stimuli_original_animals_birds_4.png	R	0	0	0	381.524608173873	381.724608466495
98199.75	100	503	13	1	33	35	5	3	0	0	0	stim006_stimuli_original_animals_fish_2.png	D	0	0	0	381.9246480125	382.12464659824
100541.5	100	504	14	0	18	0	15	7	0	0	0	stim016_stimuli_original_vehicles_planes_4.png	J	0	0	0	391.291543664876	391.491540787974
100641.5	100	505	14	0	18	1	3	10	0	0	0	stim004_stimuli_original_animals_birds_4.png	Q	0	0	0	391.691548150964	391.891579407267
100741.5	100	506	14	0	18	2	2	11	0	0	0	stim003_stimuli_original_animals_birds_3.png	R	0	0	0	392.091576042818	392.291582674487
100841.5	100	507	14	0	18	3	13	1	0	0	0	stim014_stimuli_original_vehicles_planes_2.png	B	0	0	0	392.491570532788	392.691590086091
100941.5	100	508	14	0	18	4	11	3	0	0	0	stim012_stimuli_original_vehicles_boats_4.png	D	0	0	0	392.891600618837	393.091582625639
101041.5	100	509	14	0	18	5	12	0	0	0	0	stim013_stimuli_original_vehicles_planes_1.png	A	0	0	0	393.291591451503	393.491589549929
101141.5	100	510	14	0	18	6	7	12	0	0	0	stim008_stimuli_original_animals_fish_4.png	T	0	0	0	393.69159813202	393.891605982557
101241.5	100	511	14	0	18	7	10	9	0	0	0	stim011_stimuli_original_vehicles_boats_3.png	L	0	0	0	394.091613101773	394.291602666723
101341.5	100	512	14	0	18	8	5	4	0	0	0	stim006_stimuli_original_animals_fish_2.png	E	0	0	0	394.491621732712	394.691617636709
101441.5	100	513	14	0	18	9	14	0	0	1	0	stim015_stimuli_original_vehicles_planes_3.png	A	0	0	0	394.891965601593	395.091676979791
101541.5	100	514	14	0	18	10	10	6	1	0	0	stim011_stimuli_original_vehicles_boats_3.png	G	0	0	0	395.291634849505	395.491631485056
101641.5	100	515	14	0	18	11	1	0	0	1	0	stim002_stimuli_original_animals_birds_2.png	A	0	0	0	395.691643236671	395.891643773066
101741.5	100	516	14	0	18	12	10	15	1	0	1	stim011_stimuli_original_vehicles_boats_3.png	Y	0	0	0	396.091687707463	396.291664350545
101841.5	100	517	14	0	18	13	8	8	0	0	0	stim009_stimuli_original_vehicles_boats_1.png	K	0	0	0	396.491665862268	396.691695655696
101941.5	100	518	14	0	18	14	0	2	0	0	0	stim001_stimuli_original_animals_birds_1.png	C	0	0	0	396.891671567224	397.091675516916
102041.5	100	519	14	0	18	15	6	14	0	0	0	stim007_stimuli_original_animals_fish_3.png	V	0	0	0	397.291717501124	397.49172462034
102141.5	100	520	14	0	18	16	4	13	0	0	0	stim005_stimuli_original_animals_fish_1.png	U	0	0	0	397.691699312767	397.891699117841
102241.5	100	521	14	0	18	17	9	5	0	0	0	stim010_stimuli_original_vehicles_boats_2.png	F	0	0	0	398.091711357003	398.291713600047
102341.5	100	522	14	0	18	18	5	9	0	0	0	stim006_stimuli_original_animals_fish_2.png	L	0	0	0	398.491721694591	398.691722718533
102441.5	100	523	14	0	18	19	13	4	0	0	0	stim014_stimuli_original_vehicles_planes_2.png	E	0	0	0	398.891733007273	399.091738176066
102541.5	100	524	14	0	18	20	14	6	0	0	0	stim015_stimuli_original_vehicles_planes_3.png	G	0	0	0	399.29174285708	399.4917477821
102641.5	100	525	14	0	18	21	2	0	0	0	0	stim003_stimuli_original_animals_birds_3.png	A	0	0	0	399.691752950894	399.891756413039
102741.5	100	526	14	0	18	22	8	8	0	0	0	stim009_stimuli_original_vehicles_boats_1.png	K	0	0	0	400.091767677106	400.291938148439
102841.5	100	527	14	0	18	23	15	10	0	1	0	stim016_stimuli_original_vehicles_planes_4.png	Q	d	400.484356211498	0	400.491800932679	400.691802931949
102941.5	100	528	14	0	18	24	0	1	1	0	0	stim001_stimuli_original_animals_birds_1.png	B	0	0	0	400.891791034024	401.091811806429
103041.5	100	529	14	0	18	25	6	10	0	1	0	stim007_stimuli_original_animals_fish_3.png	Q	0	0	0	401.291822095169	401.491824825993
103141.5	100	530	14	0	18	26	0	14	1	0	1	stim001_stimuli_original_animals_birds_1.png	V	0	0	0	401.691814390942	401.891807125416
103241.5	100	531	14	0	18	27	4	5	0	0	0	stim005_stimuli_original_animals_fish_1.png	F	0	0	0	402.091819364578	402.291851596208
103341.5	100	532	14	0	18	28	9	10	0	0	0	stim010_stimuli_original_vehicles_boats_2.png	Q	0	0	0	402.491859690752	402.691830969881
103441.5	100	533	14	0	18	29	12	7	0	0	0	stim013_stimuli_original_vehicles_planes_1.png	J	0	0	0	402.891841990175	403.091873734025
103541.5	100	534	14	0	18	30	0	12	0	0	0	stim001_stimuli_original_animals_birds_1.png	T	d	403.483640874736	1	403.291875001974	403.491864079144
103641.5	100	535	14	0	18	31	3	11	0	0	0	stim004_stimuli_original_animals_birds_4.png	R	0	0	0	403.691869491711	403.891872466309
103741.5	100	536	14	0	18	32	1	13	0	0	0	stim002_stimuli_original_animals_birds_2.png	U	0	0	0	404.091894701822	404.291872807546
103841.5	100	537	14	0	18	33	11	2	0	0	0	stim012_stimuli_original_vehicles_boats_4.png	C	0	0	0	404.491875294363	404.691877781413
103941.5	100	538	14	0	18	34	10	3	0	0	0	stim011_stimuli_original_vehicles_boats_3.png	D	0	0	0	404.891887094826	405.091889094096
104041.5	100	539	14	0	18	35	7	15	0	0	0	stim008_stimuli_original_animals_fish_4.png	Y	0	0	0	405.29189791996	405.491898700129
105870.75	100	540	15	1	47	0	12	15	0	0	0	stim013_stimuli_original_vehicles_planes_1.png	Y	0	0	0	412.6087602193	412.80876221857
105970.75	100	541	15	1	47	1	10	12	0	0	0	stim011_stimuli_original_vehicles_boats_3.png	T	0	0	0	413.00876958156	413.20878035808
106070.75	100	542	15	1	47	2	14	3	0	0	0	stim015_stimuli_original_vehicles_planes_3.png	D	0	0	0	413.408790646819	413.608788745012
106170.75	100	543	15	1	47	3	11	13	0	0	0	stim012_stimuli_original_vehicles_boats_4.png	U	0	0	0	413.80879781465	414.008801764576
106270.75	100	544	15	1	47	4	3	5	0	0	0	stim004_stimuli_original_animals_birds_4.png	F	0	0	0	414.208814247511	414.40881502768
106370.75	100	545	15	1	47	5	13	7	0	0	0	stim014_stimuli_original_vehicles_planes_2.png	J	0	0	0	414.608818977373	414.808819269994
106470.75	100	546	15	1	47	6	4	11	1	0	0	stim005_stimuli_original_animals_fish_1.png	R	0	0	0	415.008821269264	415.208831558004
106570.75	100	547	15	1	47	7	2	9	0	1	0	stim003_stimuli_original_animals_birds_3.png	L	0	0	0	415.408844284946	415.608893583063
106670.75	100	548	15	1	47	8	4	14	1	0	0	stim005_stimuli_original_animals_fish_1.png	V	0	0	0	415.808854378527	416.008860034868
106770.75	100	549	15	1	47	9	6	9	0	1	1	stim007_stimuli_original_animals_fish_3.png	L	0	0	0	416.208867641864	416.408866959158
106870.75	100	550	15	1	47	10	7	10	0	0	0	stim008_stimuli_original_animals_fish_4.png	Q	0	0	0	416.608874322148	416.808898264309
106970.75	100	551	15	1	47	11	8	4	0	0	0	stim009_stimuli_original_vehicles_boats_1.png	E	0	0	0	417.0089068464	417.208882757928
107070.75	100	552	15	1	47	12	1	0	0	0	0	stim002_stimuli_original_animals_birds_2.png	A	0	0	0	417.408892071573	417.60888748779
107170.75	100	553	15	1	47	13	9	6	0	0	0	stim010_stimuli_original_vehicles_boats_2.png	G	0	0	0	417.808897045208	418.008897581603
107270.75	100	554	15	1	47	14	15	1	0	0	0	stim016_stimuli_original_vehicles_planes_4.png	B	0	0	0	418.208908845671	418.408940101974
107370.75	100	555	15	1	47	15	5	2	0	0	0	stim006_stimuli_original_animals_fish_2.png	C	0	0	0	418.608954779338	418.808924595593
107470.75	100	556	15	1	47	16	4	9	0	0	0	stim005_stimuli_original_animals_fish_1.png	L	0	0	0	419.008938297862	419.208947611274
107570.75	100	557	15	1	47	17	0	8	0	0	0	stim001_stimuli_original_animals_birds_1.png	K	0	0	0	419.408971309662	419.60894722119
107670.75	100	558	15	1	47	18	8	0	0	0	0	stim009_stimuli_original_vehicles_boats_1.png	A	0	0	0	419.808986523189	420.008986572037
107770.75	100	559	15	1	47	19	9	4	0	0	0	stim010_stimuli_original_vehicles_boats_2.png	E	0	0	0	420.2089941788	420.408995690523
107870.75	100	560	15	1	47	20	2	5	0	0	0	stim003_stimuli_original_animals_birds_3.png	F	0	0	0	420.608981354395	420.808989205165
107970.75	100	561	15	1	47	21	1	15	0	0	0	stim002_stimuli_original_animals_birds_2.png	Y	0	0	0	421.008989254013	421.2089941788
108070.75	100	562	15	1	47	22	6	9	0	0	0	stim007_stimuli_original_animals_fish_3.png	L	d	421.600757662207	0	421.4089937401	421.608994764043
108170.75	100	563	15	1	47	23	0	1	0	0	0	stim001_stimuli_original_animals_birds_1.png	B	0	0	0	421.809005784104	422.009013147326
108270.75	100	564	15	1	47	24	4	8	0	0	0	stim005_stimuli_original_animals_fish_1.png	K	0	0	0	422.209054155974	422.409049816197
108370.75	100	565	15	1	47	25	10	7	0	0	0	stim011_stimuli_original_vehicles_boats_3.png	J	0	0	0	422.609062299132	422.809058934683
108470.75	100	566	15	1	47	26	9	6	1	0	0	stim010_stimuli_original_vehicles_boats_2.png	G	0	0	0	423.009066053899	423.209040258778
108570.75	100	567	15	1	47	27	14	4	0	1	0	stim015_stimuli_original_vehicles_planes_3.png	E	0	0	0	423.409060787642	423.609064493561
108670.75	100	568	15	1	47	28	9	2	1	0	0	stim010_stimuli_original_vehicles_boats_2.png	C	0	0	0	423.809090386145	424.009091410087
108770.75	100	569	15	1	47	29	11	4	0	1	1	stim012_stimuli_original_vehicles_boats_4.png	E	0	0	0	424.209106574999	424.409103698097
108870.75	100	570	15	1	47	30	7	13	0	0	0	stim008_stimuli_original_animals_fish_4.png	U	0	0	0	424.609109841986	424.809114035685
108970.75	100	571	15	1	47	31	5	3	0	0	0	stim006_stimuli_original_animals_fish_2.png	D	0	0	0	425.009116278728	425.209124617046
109070.75	100	572	15	1	47	32	13	11	0	0	0	stim014_stimuli_original_vehicles_planes_2.png	R	0	0	0	425.409132711357	425.609118375462
109170.75	100	573	15	1	47	33	3	14	0	0	0	stim004_stimuli_original_animals_birds_4.png	V	0	0	0	425.80914524314	426.009151387261
109270.75	100	574	15	1	47	34	12	10	0	0	0	stim013_stimuli_original_vehicles_planes_1.png	Q	0	0	0	426.209138270235	426.409137587529
109370.75	100	575	15	1	47	35	15	12	0	0	0	stim016_stimuli_original_vehicles_planes_4.png	T	0	0	0	426.6091349544	426.809134515701
111862.5	100	576	16	0	19	0	2	13	0	0	0	stim003_stimuli_original_animals_birds_3.png	U	0	0	0	436.576066105627	436.776073956164
111962.5	100	577	16	0	19	1	10	5	0	0	0	stim011_stimuli_original_vehicles_boats_3.png	F	0	0	0	436.976097167004	437.176086975727
112062.5	100	578	16	0	19	2	12	12	0	0	0	stim013_stimuli_original_vehicles_planes_1.png	T	0	0	0	437.376099946443	437.576099507511
112162.5	100	579	16	0	19	3	3	4	0	0	0	stim004_stimuli_original_animals_birds_4.png	E	0	0	0	437.776107845828	437.976113989716
112262.5	100	580	16	0	19	4	1	14	1	0	0	stim002_stimuli_original_animals_birds_2.png	V	0	0	0	438.176117695635	438.376125790179
112362.5	100	581	16	0	19	5	0	8	0	0	0	stim001_stimuli_original_animals_birds_1.png	K	0	0	0	438.576130958972	438.776133933337
112462.5	100	582	16	0	19	6	1	9	1	0	1	stim002_stimuli_original_animals_birds_2.png	L	0	0	0	438.976141296327	439.176142564276
112562.5	100	583	16	0	19	7	15	1	0	0	0	stim016_stimuli_original_vehicles_planes_4.png	B	0	0	0	439.37615017104	439.576150707435
112662.5	100	584	16	0	19	8	14	0	0	0	0	stim015_stimuli_original_vehicles_planes_3.png	A	0	0	0	439.776162946597	439.976165921194
112762.5	100	585	16	0	19	9	7	6	0	0	0	stim008_stimuli_original_animals_fish_4.png	G	0	0	0	440.176179135684	440.37618089118
112862.5	100	586	16	0	19	10	1	12	0	1	0	stim002_stimuli_original_animals_birds_2.png	T	0	0	0	440.576182890218	440.776200980879
112962.5	100	587	16	0	19	11	11	7	0	0	0	stim012_stimuli_original_vehicles_boats_4.png	J	0	0	0	440.976202736376	441.17622326524
113062.5	100	588	16	0	19	12	4	12	0	1	0	stim005_stimuli_original_animals_fish_1.png	T	0	0	0	441.376209660666	441.576230189297
113162.5	100	589	16	0	19	13	9	15	0	0	0	stim010_stimuli_original_vehicles_boats_2.png	Y	0	0	0	441.776218535146	441.976217121119
113262.75	100	590	16	0	19	14	13	3	0	0	0	stim014_stimuli_original_vehicles_planes_2.png	D	0	0	0	442.176618967904	442.376233066199
113362.5	100	591	16	0	19	15	5	10	0	0	0	stim006_stimuli_original_animals_fish_2.png	Q	0	0	0	442.576236284571	442.776240965817
113462.5	100	592	16	0	19	16	8	2	0	0	0	stim009_stimuli_original_vehicles_boats_1.png	C	0	0	0	442.976246622158	443.176256179344
113562.5	100	593	16	0	19	17	6	11	0	0	0	stim007_stimuli_original_animals_fish_3.png	R	0	0	0	443.376288410975	443.57627700083
113662.5	100	594	16	0	19	18	11	6	0	0	0	stim012_stimuli_original_vehicles_boats_4.png	G	0	0	0	443.776274367701	443.976276366739
113762.5	100	595	16	0	19	19	2	8	0	0	0	stim003_stimuli_original_animals_birds_3.png	K	0	0	0	444.176284217509	444.3762869481
113862.5	100	596	16	0	19	20	10	5	0	0	0	stim011_stimuli_original_vehicles_boats_3.png	F	d	444.768057502108	0	444.576292604674	444.776295335265
113962.5	100	597	16	0	19	21	3	13	0	0	0	stim004_stimuli_original_animals_birds_4.png	U	0	0	0	444.976305867778	445.17630908615
114062.5	100	598	16	0	19	22	15	9	0	0	0	stim016_stimuli_original_vehicles_planes_4.png	L	0	0	0	445.376334003406	445.576320886379
114162.5	100	599	16	0	19	23	12	4	1	0	0	stim013_stimuli_original_vehicles_planes_1.png	E	0	0	0	445.776325323852	445.976332199294
114262.5	100	600	16	0	19	24	7	11	0	0	0	stim008_stimuli_original_animals_fish_4.png	R	0	0	0	446.176356141223	446.376341073774
114362.5	100	601	16	0	19	25	12	1	1	0	1	stim013_stimuli_original_vehicles_planes_1.png	B	0	0	0	446.576346486341	446.77635068004
114462.5	100	602	16	0	19	26	6	7	0	0	0	stim007_stimuli_original_animals_fish_3.png	J	0	0	0	446.976361456327	447.176379303215
114562.5	100	603	16	0	19	27	0	14	0	0	0	stim001_stimuli_original_animals_birds_1.png	V	0	0	0	447.376367161516	447.576726829167
114662.5	100	604	16	0	19	28	1	15	0	0	0	stim002_stimuli_original_animals_birds_2.png	Y	0	0	0	447.776376523776	447.976376572624
114762.5	100	605	16	0	19	29	9	1	0	1	0	stim010_stimuli_original_vehicles_boats_2.png	B	0	0	0	448.176387348911	448.37638812908
114862.5	100	606	16	0	19	30	8	0	0	0	0	stim009_stimuli_original_vehicles_boats_1.png	A	0	0	0	448.576399393147	448.776398710441
114962.5	100	607	16	0	19	31	14	1	0	1	0	stim015_stimuli_original_vehicles_planes_3.png	B	0	0	0	448.976407780079	449.176410510903
115062.5	100	608	16	0	19	32	4	3	0	0	0	stim005_stimuli_original_animals_fish_1.png	D	0	0	0	449.376417142339	449.576420848258
115162.5	100	609	16	0	19	33	12	12	0	0	0	stim013_stimuli_original_vehicles_planes_1.png	T	0	0	0	449.776430161903	449.976427772548
115262.5	100	610	16	0	19	34	5	10	0	0	0	stim006_stimuli_original_animals_fish_2.png	Q	0	0	0	450.176440987037	450.376442498527
115362.5	100	611	16	0	19	35	13	2	0	0	0	stim014_stimuli_original_vehicles_planes_2.png	C	0	0	0	450.57644986175	450.776451617014
117600.25	100	612	17	1	0	0	15	12	0	0	0	stim016_stimuli_original_vehicles_planes_4.png	T	0	0	0	459.526684698882	459.726689136121
117700.25	100	613	17	1	0	1	1	0	0	0	0	stim002_stimuli_original_animals_birds_2.png	A	0	0	0	459.926719661104	460.126692647114
117800.25	100	614	17	1	0	2	2	9	0	0	0	stim003_stimuli_original_animals_birds_3.png	L	0	0	0	460.326697084354	460.526734435931
117900.25	100	615	17	1	0	3	7	1	0	0	0	stim008_stimuli_original_animals_fish_4.png	B	0	0	0	460.726738385623	460.92709415243
118000.25	100	616	17	1	0	4	10	11	0	0	0	stim011_stimuli_original_vehicles_boats_3.png	R	0	0	0	461.12675091764	461.326740726363
118100.25	100	617	17	1	0	5	12	4	0	1	0	stim013_stimuli_original_vehicles_planes_1.png	E	0	0	0	461.526736874133	461.726732534356
118200.25	100	618	17	1	0	6	6	2	0	0	0	stim007_stimuli_original_animals_fish_3.png	C	0	0	0	461.926738434471	462.126748966984
118300.25	100	619	17	1	0	7	13	4	0	1	1	stim014_stimuli_original_vehicles_planes_2.png	E	0	0	0	462.326760962373	462.526763449423
118400.25	100	620	17	1	0	8	9	3	0	0	0	stim010_stimuli_original_vehicles_boats_2.png	D	0	0	0	462.726766180014	462.926797436317
118500.25	100	621	17	1	0	9	4	10	0	0	0	stim005_stimuli_original_animals_fish_1.png	Q	0	0	0	463.126782125095	463.326786806341
118600.25	100	622	17	1	0	10	13	15	1	0	0	stim014_stimuli_original_vehicles_planes_2.png	Y	0	0	0	463.526801483706	463.726788854226
118700.25	100	623	17	1	0	11	11	5	0	0	0	stim012_stimuli_original_vehicles_boats_4.png	F	0	0	0	463.926801337395	464.126805530861
118800.25	100	624	17	1	0	12	13	14	1	0	0	stim014_stimuli_original_vehicles_planes_2.png	V	0	0	0	464.326810211875	464.526811967371
118900.25	100	625	17	1	0	13	8	8	0	0	0	stim009_stimuli_original_vehicles_boats_1.png	K	0	0	0	464.726819574367	464.926825962029
119000.25	100	626	17	1	0	14	3	6	0	0	0	stim004_stimuli_original_animals_birds_4.png	G	0	0	0	465.126832837472	465.326833617641
119100.25	100	627	17	1	0	15	14	13	0	0	0	stim015_stimuli_original_vehicles_planes_3.png	U	0	0	0	465.526849270333	465.726850050502
119200.25	100	628	17	1	0	16	0	7	0	0	0	stim001_stimuli_original_animals_birds_1.png	J	0	0	0	465.926861802116	466.126862826059
119300.25	100	629	17	1	0	17	5	4	0	0	0	stim006_stimuli_original_animals_fish_2.png	E	0	0	0	466.32686555665	466.526860729326
119400.25	100	630	17	1	0	18	4	5	0	0	0	stim005_stimuli_original_animals_fish_1.png	F	0	0	0	466.726896374254	466.9268893525
119500.25	100	631	17	1	0	19	7	0	0	0	0	stim008_stimuli_original_animals_fish_4.png	A	0	0	0	467.126889157575	467.326914806152
119600.25	100	632	17	1	0	20	13	14	0	0	0	stim014_stimuli_original_vehicles_planes_2.png	V	d	467.718668293441	0	467.526903883554	467.726893936051
119700.25	100	633	17	1	0	21	6	3	0	0	0	stim007_stimuli_original_animals_fish_3.png	D	0	0	0	467.926901299274	468.126905005192
119800.25	100	634	17	1	0	22	8	8	0	0	0	stim009_stimuli_original_vehicles_boats_1.png	K	0	0	0	468.326945526293	468.526915342547
119900.25	100	635	17	1	0	23	14	13	0	1	0	stim015_stimuli_original_vehicles_planes_3.png	U	0	0	0	468.72692636284	468.92692421726
120000.25	100	636	17	1	0	24	5	11	0	0	0	stim006_stimuli_original_animals_fish_2.png	R	0	0	0	469.126942795468	469.326951621566
120100.25	100	637	17	1	0	25	15	13	0	1	1	stim016_stimuli_original_vehicles_planes_4.png	U	0	0	0	469.526947525563	469.726948305732
120200.25	100	638	17	1	0	26	10	4	0	0	0	stim011_stimuli_original_vehicles_boats_3.png	E	0	0	0	469.926960788667	470.126978635555
120300.25	100	639	17	1	0	27	3	9	0	0	0	stim004_stimuli_original_animals_birds_4.png	L	0	0	0	470.326971126255	470.526983852964
120400.25	100	640	17	1	0	28	4	13	1	0	0	stim005_stimuli_original_animals_fish_1.png	U	d	470.719544544583	1	470.726981707616	470.926980049582
120500.25	100	641	17	1	0	29	2	6	0	0	0	stim003_stimuli_original_animals_birds_3.png	G	0	0	0	471.127015450737	471.327020863304
120600.25	100	642	17	1	0	30	4	12	1	0	0	stim005_stimuli_original_animals_fish_1.png	T	0	0	0	471.527332988102	471.72703827126
120700.25	100	643	17	1	0	31	11	10	0	0	0	stim012_stimuli_original_vehicles_boats_4.png	Q	d	472.118773228955	0	471.927011988591	472.127015938284
120800.25	100	644	17	1	0	32	1	7	0	0	0	stim002_stimuli_original_animals_birds_2.png	J	0	0	0	472.327025495702	472.527029689169
120900.25	100	645	17	1	0	33	9	2	0	0	0	stim010_stimuli_original_vehicles_boats_2.png	C	0	0	0	472.727036320837	472.92703734478
121000.25	100	646	17	1	0	34	0	1	0	0	0	stim001_stimuli_original_animals_birds_1.png	B	0	0	0	473.12704519555	473.32704670704
121100.25	100	647	17	1	0	35	12	15	0	0	0	stim013_stimuli_original_vehicles_planes_1.png	Y	d	473.718823112547	0	473.527062847279	473.727065821877
124533.75	100	648	18	0	31	0	1	10	0	0	0	stim002_stimuli_original_animals_birds_2.png	Q	0	0	0	487.260753459064	487.460753263906
124633.75	100	649	18	0	31	1	8	0	0	0	0	stim009_stimuli_original_vehicles_boats_1.png	A	0	0	0	487.660759408027	487.860764576821
124733.75	100	650	18	0	31	2	0	11	0	0	0	stim001_stimuli_original_animals_birds_1.png	R	0	0	0	488.060773402685	488.260773695074
124833.75	100	651	18	0	31	3	13	12	0	0	0	stim014_stimuli_original_vehicles_planes_2.png	T	0	0	0	488.460786422016	488.660786958411
124933.75	100	652	18	0	31	4	3	7	0	0	0	stim004_stimuli_original_animals_birds_4.png	J	0	0	0	488.860807974823	489.060825821711
125033.75	100	653	18	0	31	5	2	4	0	0	0	stim003_stimuli_original_animals_birds_3.png	E	0	0	0	489.260805634316	489.460810071556
125133.75	100	654	18	0	31	6	14	8	0	0	0	stim015_stimuli_original_vehicles_planes_3.png	K	0	0	0	489.661195095396	489.86083747563
125233.75	100	655	18	0	31	7	5	13	0	0	0	stim006_stimuli_original_animals_fish_2.png	U	0	0	0	490.060857029166	490.260860978859
125333.75	100	656	18	0	31	8	11	14	0	0	0	stim012_stimuli_original_vehicles_boats_4.png	V	0	0	0	490.460853713332	490.660841815639
125433.75	100	657	18	0	31	9	12	6	0	0	0	stim013_stimuli_original_vehicles_planes_1.png	G	0	0	0	490.860851860605	491.060862636892
125533.75	100	658	18	0	31	10	1	4	1	1	0	stim002_stimuli_original_animals_birds_2.png	E	0	0	0	491.260856102686	491.460860052379
125633.75	100	659	18	0	31	11	4	15	0	0	0	stim005_stimuli_original_animals_fish_1.png	Y	d	491.653453414328	0	491.660873754648	491.860884530935
125733.75	100	660	18	0	31	12	1	4	1	1	1	stim002_stimuli_original_animals_birds_2.png	E	0	0	0	492.060908960644	492.260906083742
125833.75	100	661	18	0	31	13	9	3	0	0	0	stim010_stimuli_original_vehicles_boats_2.png	D	d	492.652657132829	1	492.460894429591	492.660907156533
125933.75	100	662	18	0	31	14	15	2	0	0	0	stim016_stimuli_original_vehicles_planes_4.png	C	0	0	0	492.860916226171	493.060905791121
126033.75	100	663	18	0	31	15	6	1	0	0	0	stim007_stimuli_original_animals_fish_3.png	B	0	0	0	493.260920712259	493.460919054458
126133.75	100	664	18	0	31	16	10	5	0	0	0	stim011_stimuli_original_vehicles_boats_3.png	F	0	0	0	493.660945678363	493.860947190085
126233.75	100	665	18	0	31	17	7	9	0	0	0	stim008_stimuli_original_animals_fish_4.png	L	0	0	0	494.060948457802	494.260950213298
126333.75	100	666	18	0	31	18	9	7	0	0	0	stim010_stimuli_original_vehicles_boats_2.png	J	0	0	0	494.460943679092	494.660945434589
126433.75	100	667	18	0	31	19	5	10	0	0	0	stim006_stimuli_original_animals_fish_2.png	Q	0	0	0	494.860960599501	495.061140335863
126533.75	100	668	18	0	31	20	1	6	0	0	0	stim002_stimuli_original_animals_birds_2.png	G	0	0	0	495.260970693314	495.460970010608
126633.75	100	669	18	0	31	21	2	15	0	0	0	stim003_stimuli_original_animals_birds_3.png	Y	0	0	0	495.660979080247	495.860983517487
126733.75	100	670	18	0	31	22	3	9	0	0	0	stim004_stimuli_original_animals_birds_4.png	L	d	496.053544696653	0	496.060988930054	496.260991173098
126833.75	100	671	18	0	31	23	4	1	1	1	0	stim005_stimuli_original_animals_fish_1.png	B	0	0	0	496.460999267641	496.661031743046
126933.75	100	672	18	0	31	24	15	4	0	0	0	stim016_stimuli_original_vehicles_planes_4.png	E	0	0	0	496.861035205191	497.061025013914
127033.75	100	673	18	0	31	25	4	1	1	1	1	stim005_stimuli_original_animals_fish_1.png	B	0	0	0	497.261034083553	497.461038033478
127133.75	100	674	18	0	31	26	6	12	0	0	0	stim007_stimuli_original_animals_fish_3.png	T	0	0	0	497.6610324746	497.861063487129
127233.75	100	675	18	0	31	27	14	11	0	0	0	stim015_stimuli_original_vehicles_planes_3.png	R	0	0	0	498.06105134543	498.261056026444
127333.75	100	676	18	0	31	28	13	5	0	0	0	stim014_stimuli_original_vehicles_planes_2.png	F	0	0	0	498.461077042855	498.661063682055
127433.75	100	677	18	0	31	29	8	14	0	0	0	stim009_stimuli_original_vehicles_boats_1.png	V	0	0	0	498.861065681325	499.061064023525
127533.75	100	678	18	0	31	30	4	2	0	0	0	stim005_stimuli_original_animals_fish_1.png	C	0	0	0	499.261070898967	499.461074360879
127633.75	100	679	18	0	31	31	7	3	0	0	0	stim008_stimuli_original_animals_fish_4.png	D	0	0	0	499.661087331595	499.861085186014
127733.75	100	680	18	0	31	32	12	13	0	0	0	stim013_stimuli_original_vehicles_planes_1.png	U	0	0	0	500.06108986726	500.2610943045
127833.75	100	681	18	0	31	33	11	0	0	0	0	stim012_stimuli_original_vehicles_boats_4.png	A	0	0	0	500.461138726678	500.661135606002
127933.75	100	682	18	0	31	34	0	8	0	0	0	stim001_stimuli_original_animals_birds_1.png	K	0	0	0	500.861145163188	501.061146674911
128033.75	100	683	18	0	31	35	10	1	0	0	0	stim011_stimuli_original_vehicles_boats_3.png	B	d	501.253717118641	0	501.261134533212	501.461131900083
130004.5	100	684	19	1	24	0	7	10	0	0	0	stim008_stimuli_original_animals_fish_4.png	Q	0	0	0	509.144669204252	509.344706312055
130104.5	100	685	19	1	24	1	6	2	0	0	0	stim007_stimuli_original_animals_fish_3.png	C	0	0	0	509.544705385575	509.744693243876
130204.5	100	686	19	1	24	2	5	12	0	0	0	stim006_stimuli_original_animals_fish_2.png	T	0	0	0	509.944710603217	510.144724792801
130304.5	100	687	19	1	24	3	10	5	0	0	0	stim011_stimuli_original_vehicles_boats_3.png	F	0	0	0	510.344728742493	510.544717088575
130404.5	100	688	19	1	24	4	0	4	0	0	0	stim001_stimuli_original_animals_birds_1.png	E	0	0	0	510.74471469922	510.944743761327
130504.75	100	689	19	1	24	5	7	15	1	0	0	stim008_stimuli_original_animals_fish_4.png	Y	0	0	0	511.144753806293	511.344739957713
130604.75	100	690	19	1	24	6	2	13	0	0	0	stim003_stimuli_original_animals_birds_3.png	U	0	0	0	511.544735861709	511.744733716361
130704.75	100	691	19	1	24	7	7	2	1	1	0	stim008_stimuli_original_animals_fish_4.png	C	0	0	0	511.944741810672	512.144746735692
130804.75	100	692	19	1	24	8	4	1	0	0	0	stim005_stimuli_original_animals_fish_1.png	B	0	0	0	512.344751172932	512.544793400913
130904.75	100	693	19	1	24	9	3	2	0	1	1	stim004_stimuli_original_animals_birds_4.png	C	0	0	0	512.744766386691	512.944782526931
131004.75	100	694	19	1	24	10	13	11	0	0	0	stim014_stimuli_original_vehicles_planes_2.png	R	0	0	0	513.144804274663	513.344807736808
131104.75	100	695	19	1	24	11	12	14	0	0	0	stim013_stimuli_original_vehicles_planes_1.png	V	d	513.736579509685	1	513.544816075126	513.744799301028
131204.75	100	696	19	1	24	12	15	9	0	0	0	stim016_stimuli_original_vehicles_planes_4.png	L	0	0	0	513.944822024088	514.144830849953
131304.75	100	697	19	1	24	13	1	8	0	0	0	stim002_stimuli_original_animals_birds_2.png	K	0	0	0	514.344838944497	514.5448104674
131404.75	100	698	19	1	24	14	9	6	0	0	0	stim010_stimuli_original_vehicles_boats_2.png	G	0	0	0	514.744817586849	514.944830069784
131504.75	100	699	19	1	24	15	11	3	0	0	0	stim012_stimuli_original_vehicles_boats_4.png	D	0	0	0	515.144828411983	515.344826997723
131604.75	100	700	19	1	24	16	14	0	0	0	0	stim015_stimuli_original_vehicles_planes_3.png	A	0	0	0	515.544835823588	515.744840504834
131704.75	100	701	19	1	24	17	8	7	0	0	0	stim009_stimuli_original_vehicles_boats_1.png	J	0	0	0	515.944846648723	516.144849379547
131804.75	100	702	19	1	24	18	7	8	0	0	0	stim008_stimuli_original_animals_fish_4.png	K	0	0	0	516.344859668287	516.544875808526
131904.75	100	703	19	1	24	19	0	14	0	0	0	stim001_stimuli_original_animals_birds_1.png	V	0	0	0	516.744871468516	516.944901993498
132004.75	100	704	19	1	24	20	3	11	0	0	0	stim004_stimuli_original_animals_birds_4.png	R	0	0	0	517.144914232893	517.344911843538
132104.75	100	705	19	1	24	21	6	9	0	0	0	stim007_stimuli_original_animals_fish_3.png	L	0	0	0	517.544923107373	517.744905845728
132204.75	100	706	19	1	24	22	8	1	0	0	0	stim009_stimuli_original_vehicles_boats_1.png	B	d	518.13711062423	0	517.945346945664	518.14494080795
132304.75	100	707	19	1	24	23	9	15	0	0	0	stim010_stimuli_original_vehicles_boats_2.png	Y	0	0	0	518.344945489196	518.544917743653
132404.75	100	708	19	1	24	24	14	12	0	0	0	stim015_stimuli_original_vehicles_planes_3.png	T	0	0	0	518.744926325744	518.944922717288
132504.75	100	709	19	1	24	25	11	13	0	0	0	stim012_stimuli_original_vehicles_boats_4.png	U	0	0	0	519.144941539504	519.34494573297
132604.75	100	710	19	1	24	26	2	3	1	0	0	stim003_stimuli_original_animals_birds_3.png	D	d	519.537527635926	0	519.544960897882	519.744992154185
132704.75	100	711	19	1	24	27	1	4	0	0	0	stim002_stimuli_original_animals_birds_2.png	E	0	0	0	519.94496660307	520.144963482395
132804.75	100	712	19	1	24	28	2	7	1	1	0	stim003_stimuli_original_animals_birds_3.png	J	0	0	0	520.34496645676	520.544966993155
132904.75	100	713	19	1	24	29	13	2	0	0	0	stim014_stimuli_original_vehicles_planes_2.png	C	0	0	0	520.74497581902	520.944979524938
133004.75	100	714	19	1	24	30	15	7	0	1	1	stim016_stimuli_original_vehicles_planes_4.png	J	0	0	0	521.144985181279	521.344985473901
133104.75	100	715	19	1	24	31	4	0	0	0	0	stim005_stimuli_original_animals_fish_1.png	A	0	0	0	521.544998200843	521.74501190288
133204.75	100	716	19	1	24	32	5	10	0	0	0	stim006_stimuli_original_animals_fish_2.png	Q	0	0	0	521.94501341437	522.145011269022
133304.75	100	717	19	1	24	33	12	5	0	0	0	stim013_stimuli_original_vehicles_planes_1.png	F	d	522.536822295282	1	522.345058616716	522.545057690237
133404.75	100	718	19	1	24	34	2	6	0	0	0	stim003_stimuli_original_animals_birds_3.png	G	0	0	0	522.74506578478	522.945047304034
133504.75	100	719	19	1	24	35	10	7	0	0	0	stim011_stimuli_original_vehicles_boats_3.png	J	0	0	0	523.145046377555	523.345393123338
137109	100	720	20	0	42	0	2	11	0	0	0	stim003_stimuli_original_animals_birds_3.png	R	0	0	0	537.562097043963	537.762103919405
137209	100	721	20	0	42	1	12	8	0	0	0	stim013_stimuli_original_vehicles_planes_1.png	K	0	0	0	537.962112501496	538.162122546462
137309	100	722	20	0	42	2	7	1	0	0	0	stim008_stimuli_original_animals_fish_4.png	B	0	0	0	538.362131616101	538.562149950769
137409	100	723	20	0	42	3	4	6	0	0	0	stim005_stimuli_original_animals_fish_1.png	G	0	0	0	538.762158776633	538.962150048232
137509	100	724	20	0	42	4	13	5	0	0	0	stim014_stimuli_original_vehicles_planes_2.png	F	0	0	0	539.162142782705	539.362144050421
137609	100	725	20	0	42	5	14	0	0	0	0	stim015_stimuli_original_vehicles_planes_3.png	A	0	0	0	539.562155558262	539.762166822329
137709	100	726	20	0	42	6	10	9	0	0	0	stim011_stimuli_original_vehicles_boats_3.png	L	0	0	0	539.962190032937	540.162177891238
137809	100	727	20	0	42	7	6	3	0	0	0	stim007_stimuli_original_animals_fish_3.png	D	0	0	0	540.362199151423	540.562201882014
137909	100	728	20	0	42	8	4	2	1	0	0	stim005_stimuli_original_animals_fish_1.png	C	0	0	0	540.762196567142	540.962208318757
138009	100	729	20	0	42	9	11	14	0	0	0	stim012_stimuli_original_vehicles_boats_4.png	V	0	0	0	541.16221299977	541.362195250578
138109	100	730	20	0	42	10	4	15	1	0	1	stim005_stimuli_original_animals_fish_1.png	Y	0	0	0	541.562228457304	541.762231919449
138209	100	731	20	0	42	11	3	3	0	1	0	stim004_stimuli_original_animals_birds_4.png	D	0	0	0	541.962238307111	542.162671605358
138309	100	732	20	0	42	12	8	10	0	0	0	stim009_stimuli_original_vehicles_boats_1.png	Q	0	0	0	542.362221094314	542.562221630709
138409	100	733	20	0	42	13	9	3	0	1	0	stim010_stimuli_original_vehicles_boats_2.png	D	0	0	0	542.762231675675	542.962262931978
138509	100	734	20	0	42	14	1	4	0	0	0	stim002_stimuli_original_animals_birds_2.png	E	0	0	0	543.162269319873	543.362268149387
138609	100	735	20	0	42	15	5	12	0	0	0	stim006_stimuli_original_animals_fish_2.png	T	0	0	0	543.562266004039	543.762282388052
138709	100	736	20	0	42	16	15	7	0	0	0	stim016_stimuli_original_vehicles_planes_4.png	J	0	0	0	543.962295602541	544.162293213187
138809	100	737	20	0	42	17	0	13	0	0	0	stim001_stimuli_original_animals_birds_1.png	U	0	0	0	544.362298625754	544.562304038322
138909	100	738	20	0	42	18	13	0	0	0	0	stim014_stimuli_original_vehicles_planes_2.png	A	0	0	0	544.762314570835	544.962301941589
139009	100	739	20	0	42	19	7	15	0	0	0	stim008_stimuli_original_animals_fish_4.png	Y	0	0	0	545.16230759793	545.362319593318
139109	100	740	20	0	42	20	12	5	0	0	0	stim013_stimuli_original_vehicles_planes_1.png	F	0	0	0	545.562318910612	545.762346022297
139209	100	741	20	0	42	21	4	1	0	0	0	stim005_stimuli_original_animals_fish_1.png	B	0	0	0	545.96233826899	546.162352946354
139309	100	742	20	0	42	22	3	9	1	0	0	stim004_stimuli_original_animals_birds_4.png	L	0	0	0	546.362340073334	546.562344754348
139409	100	743	20	0	42	23	10	8	0	0	0	stim011_stimuli_original_vehicles_boats_3.png	K	0	0	0	546.762346997391	546.962354360614
139509	100	744	20	0	42	24	3	3	1	0	1	stim004_stimuli_original_animals_birds_4.png	D	0	0	0	547.162361723604	547.362370793242
139609	100	745	20	0	42	25	15	4	0	1	0	stim016_stimuli_original_vehicles_planes_4.png	E	0	0	0	547.562373523833	547.76237284136
139709	100	746	20	0	42	26	14	11	0	0	0	stim015_stimuli_original_vehicles_planes_3.png	R	0	0	0	547.962380448123	548.162409997778
139809	100	747	20	0	42	27	2	4	0	1	0	stim003_stimuli_original_animals_birds_3.png	E	0	0	0	548.362414191244	548.562420091592
139909	100	748	20	0	42	28	3	6	0	0	0	stim004_stimuli_original_animals_birds_4.png	G	d	548.755065141013	1	548.762424772605	548.962427015649
140009	100	749	20	0	42	29	9	10	0	0	0	stim010_stimuli_original_vehicles_boats_2.png	Q	0	0	0	549.162441936787	549.362434183713
140109	100	750	20	0	42	30	0	14	0	0	0	stim001_stimuli_original_animals_birds_1.png	V	0	0	0	549.562425455311	549.762428917456
140209	100	751	20	0	42	31	5	13	0	0	0	stim006_stimuli_original_animals_fish_2.png	U	0	0	0	549.962441156618	550.162437060615
140309	100	752	20	0	42	32	6	4	0	0	0	stim007_stimuli_original_animals_fish_3.png	E	0	0	0	550.362442960963	550.562447641976
140409	100	753	20	0	42	33	1	7	0	0	0	stim002_stimuli_original_animals_birds_2.png	J	0	0	0	550.762455980293	550.962487968151
140509	100	754	20	0	42	34	8	12	0	0	0	stim009_stimuli_original_vehicles_boats_1.png	T	0	0	0	551.162464367226	551.362486846512
140609	100	755	20	0	42	35	11	2	0	0	0	stim012_stimuli_original_vehicles_boats_4.png	C	0	0	0	551.562475192361	551.762474509887
144025.75	100	756	21	1	23	0	3	14	0	0	0	stim004_stimuli_original_animals_birds_4.png	V	0	0	0	565.229506598087	565.429539317265
144125.75	100	757	21	1	23	1	11	5	0	0	0	stim012_stimuli_original_vehicles_boats_4.png	F	0	0	0	565.629525225144	565.829549167072
144225.75	100	758	21	1	23	2	1	11	0	0	0	stim002_stimuli_original_animals_birds_2.png	R	0	0	0	566.029531174107	566.22954755812
144325.75	100	759	21	1	23	3	8	15	0	0	0	stim009_stimuli_original_vehicles_boats_1.png	Y	0	0	0	566.429545656312	566.62957179267
144425.75	100	760	21	1	23	4	5	9	0	0	0	stim006_stimuli_original_animals_fish_2.png	L	0	0	0	566.829566721572	567.029569452163
144525.75	100	761	21	1	23	5	6	10	0	0	0	stim007_stimuli_original_animals_fish_3.png	Q	0	0	0	567.229569257004	567.429580521071
144625.75	100	762	21	1	23	6	15	7	0	0	0	stim016_stimuli_original_vehicles_planes_4.png	J	0	0	0	567.62959007849	567.829592809081
144725.75	100	763	21	1	23	7	4	2	0	0	0	stim005_stimuli_original_animals_fish_1.png	C	0	0	0	568.029606998665	568.229587299051
144825.75	100	764	21	1	23	8	12	8	0	0	0	stim013_stimuli_original_vehicles_planes_1.png	K	0	0	0	568.429592223838	568.629618360195
144925.75	100	765	21	1	23	9	7	1	0	0	0	stim008_stimuli_original_animals_fish_4.png	B	0	0	0	568.829623285215	569.029622846283
145025.75	100	766	21	1	23	10	4	0	1	0	0	stim005_stimuli_original_animals_fish_1.png	A	0	0	0	569.229622651357	569.429636840941
145125.75	100	767	21	1	23	11	13	7	0	1	0	stim014_stimuli_original_vehicles_planes_2.png	J	0	0	0	569.629635914462	569.829643277684
145225.75	100	768	21	1	23	12	4	3	1	0	0	stim005_stimuli_original_animals_fish_1.png	D	0	0	0	570.029644301627	570.229648251319
145325.75	100	769	21	1	23	13	0	7	0	1	1	stim001_stimuli_original_animals_birds_1.png	J	0	0	0	570.429655614309	570.629654931603
145425.75	100	770	21	1	23	14	2	13	0	0	0	stim003_stimuli_original_animals_birds_3.png	U	0	0	0	570.829780542292	571.029650884448
145525.75	100	771	21	1	23	15	14	6	0	0	0	stim015_stimuli_original_vehicles_planes_3.png	G	0	0	0	571.229655321687	571.42965683341
145625.75	100	772	21	1	23	16	9	12	0	0	0	stim010_stimuli_original_vehicles_boats_2.png	T	0	0	0	571.629672729876	571.829670828069
145725.75	100	773	21	1	23	17	10	4	0	0	0	stim011_stimuli_original_vehicles_boats_3.png	E	0	0	0	572.029674777761	572.229692380875
145825.75	100	774	21	1	23	18	4	10	0	0	0	stim005_stimuli_original_animals_fish_1.png	Q	0	0	0	572.429701694287	572.629701255588
145925.75	100	775	21	1	23	19	12	9	0	0	0	stim013_stimuli_original_vehicles_planes_1.png	L	0	0	0	572.82970520528	573.02970671677
146025.75	100	776	21	1	23	20	6	14	0	0	0	stim007_stimuli_original_animals_fish_3.png	V	0	0	0	573.229739435948	573.429723393405
146125.75	100	777	21	1	23	21	13	2	0	0	0	stim014_stimuli_original_vehicles_planes_2.png	C	d	573.622316267807	0	573.629720028723	573.829721296672
146225.75	100	778	21	1	23	22	7	0	1	0	0	stim008_stimuli_original_animals_fish_4.png	A	0	0	0	574.029747676803	574.229760891292
146325.75	100	779	21	1	23	23	3	4	0	1	0	stim004_stimuli_original_animals_birds_4.png	E	0	0	0	574.429770936258	574.629778299248
146425.75	100	780	21	1	23	24	7	13	1	0	0	stim008_stimuli_original_animals_fish_4.png	U	0	0	0	574.829778835643	575.029766937718
146525.75	100	781	21	1	23	25	0	4	0	1	1	stim001_stimuli_original_animals_birds_1.png	E	0	0	0	575.229793561855	575.429791172501
146625.75	100	782	21	1	23	26	1	7	0	0	0	stim002_stimuli_original_animals_birds_2.png	J	0	0	0	575.629799510818	575.82980589848
146725.75	100	783	21	1	23	27	8	12	0	0	0	stim009_stimuli_original_vehicles_boats_1.png	T	0	0	0	576.029812286375	576.230111733079
146825.75	100	784	21	1	23	28	2	4	0	0	0	stim003_stimuli_original_animals_birds_3.png	E	0	0	0	576.42982262373	576.629826817429
146925.75	100	785	21	1	23	29	7	15	0	0	0	stim008_stimuli_original_animals_fish_4.png	Y	0	0	0	576.829831742216	577.029817650095
147025.75	100	786	21	1	23	30	10	6	0	0	0	stim011_stimuli_original_vehicles_boats_3.png	G	0	0	0	577.229817455169	577.429820917081
147125.75	100	787	21	1	23	31	9	5	0	0	0	stim010_stimuli_original_vehicles_boats_2.png	F	0	0	0	577.629829986952	577.82984783384
147225.75	100	788	21	1	23	32	15	8	0	0	0	stim016_stimuli_original_vehicles_planes_4.png	K	0	0	0	578.029861292103	578.229859146522
147325.75	100	789	21	1	23	33	11	1	0	0	0	stim012_stimuli_original_vehicles_boats_4.png	B	0	0	0	578.429871385684	578.629873141181
147425.75	100	790	21	1	23	34	5	11	0	0	0	stim006_stimuli_original_animals_fish_2.png	R	0	0	0	578.829877334647	579.02987884637
147525.75	100	791	21	1	23	35	14	3	0	0	0	stim015_stimuli_original_vehicles_planes_3.png	D	0	0	0	579.229890110204	579.429891134379
149271.75	100	792	22	0	5	0	13	12	0	0	0	stim014_stimuli_original_vehicles_planes_2.png	T	0	0	0	586.213395426748	586.413389624096
149371.75	100	793	22	0	5	1	4	8	0	0	0	stim005_stimuli_original_animals_fish_1.png	K	0	0	0	586.613397962414	586.813401180785
149471.75	100	794	22	0	5	2	8	14	0	0	0	stim009_stimuli_original_vehicles_boats_1.png	V	0	0	0	587.013408056227	587.213410543045
