onset	duration	eventnumber	sequencenumber	condition	streamnumber	stimnumber	objectstimnumber	letterstimnumber	objecttarget	lettertarget	is2back	objectstim	letterstim	response	rt	correct	time_stimon	time_stimoff
84.34	0.2	0	0	0	38	0	15	2	0	0	0	stim016_stimuli_original_vehicles_planes_4.png	C	0	0	0	55.0125644754153	55.2125528213219
84.741	0.2	1	0	0	38	1	3	8	0	0	0	stim004_stimuli_original_animals_birds_4.png	K	0	0	0	55.4134439936024	55.6125770559884
85.14	0.2	2	0	0	38	2	10	0	0	0	0	stim011_stimuli_original_vehicles_boats_3.png	A	0	0	0	55.8125812495127	56.0125849554315
85.54	0.2	3	0	0	38	3	11	6	0	0	0	stim012_stimuli_original_vehicles_boats_4.png	G	0	0	0	56.2125940251281	56.412598706258
85.94	0.2	4	0	0	38	4	4	11	0	0	0	stim005_stimuli_original_animals_fish_1.png	R	0	0	0	56.6125933912117	56.8126012418652
86.34	0.2	5	0	0	38	5	14	14	0	0	0	stim015_stimuli_original_vehicles_planes_3.png	V	0	0	0	57.0126064106589	57.2126152365818
86.74	0.2	6	0	0	38	6	8	5	1	0	0	stim009_stimuli_original_vehicles_boats_1.png	F	0	0	0	57.4126240624464	57.6126309378888
87.14	0.2	7	0	0	38	7	6	12	0	0	0	stim007_stimuli_original_animals_fish_3.png	T	0	0	0	57.8126361066243	58.0126390811056
87.54	0.2	8	0	0	38	8	8	9	1	0	1	stim009_stimuli_original_vehicles_boats_1.png	L	0	0	0	58.2126437622355	58.4126511252834
87.94	0.2	9	0	0	38	9	5	7	0	0	0	stim006_stimuli_original_animals_fish_2.png	J	0	0	0	58.6126453226316	58.8126590247266
88.34	0.2	10	0	0	38	10	0	5	0	1	0	stim001_stimuli_original_animals_birds_1.png	F	0	0	0	59.0126515154261	59.2126737508224
88.74	0.2	11	0	0	38	11	12	10	0	0	0	stim013_stimuli_original_vehicles_planes_1.png	Q	0	0	0	59.4126798948273	59.6126833569142
89.14	0.2	12	0	0	38	12	13	5	0	1	0	stim014_stimuli_original_vehicles_planes_2.png	F	0	0	0	59.8126680456917	60.0126707763411
89.54	0.2	13	0	0	38	13	8	1	0	0	0	stim009_stimuli_original_vehicles_boats_1.png	B	NaN	60.4044405987952	1	60.2126737508224	60.4126779443468
89.94	0.2	14	0	0	38	14	9	4	0	0	0	stim010_stimuli_original_vehicles_boats_2.png	E	0	0	0	60.6126887206919	60.8127170513617
90.34	0.2	15	0	0	38	15	1	13	0	0	0	stim002_stimuli_original_animals_birds_2.png	U	0	0	0	61.0127117363154	61.2127190993633
90.74	0.2	16	0	0	38	16	2	3	0	0	0	stim003_stimuli_original_animals_birds_3.png	D	0	0	0	61.4127315824153	61.6127304121037
91.14	0.2	17	0	0	38	17	7	15	0	0	0	stim008_stimuli_original_animals_fish_4.png	Y	0	0	0	61.812739969464	62.0127427001134
91.54	0.2	18	0	0	38	18	15	7	0	0	0	stim016_stimuli_original_vehicles_planes_4.png	J	0	0	0	62.2127520136419	62.4127764433506
91.94	0.2	19	0	0	38	19	3	2	0	0	0	stim004_stimuli_original_animals_birds_4.png	C	0	0	0	62.6127550368547	62.8127636190038
92.34	0.2	20	0	0	38	20	13	1	0	0	0	stim014_stimuli_original_vehicles_planes_2.png	B	0	0	0	63.0127734201378	63.2127732250956
92.74	0.2	21	0	0	38	21	4	9	0	0	0	stim005_stimuli_original_animals_fish_1.png	L	0	0	0	63.4127837576088	63.6127906330512
93.14	0.2	22	0	0	38	22	1	8	0	0	0	stim002_stimuli_original_animals_birds_2.png	K	0	0	0	63.8127931199269	64.0127951191389
93.54	0.2	23	0	0	38	23	5	13	1	0	0	stim006_stimuli_original_animals_fish_2.png	U	0	0	0	64.2128054079367	64.4128181347623
93.94	0.2	24	0	0	38	24	10	12	0	0	0	stim011_stimuli_original_vehicles_boats_3.png	T	0	0	0	64.6128145263647	64.8128155503655
94.34	0.2	25	0	0	38	25	5	0	1	0	1	stim006_stimuli_original_animals_fish_2.png	A	0	0	0	65.0128270582063	65.2128017507493
94.74	0.2	26	0	0	38	26	7	5	0	0	0	stim008_stimuli_original_animals_fish_4.png	F	0	0	0	65.4128366642981	65.612840126385
95.14	0.2	27	0	0	38	27	9	8	0	1	0	stim010_stimuli_original_vehicles_boats_2.png	K	0	0	0	65.812826765643	66.0128324219841
95.54	0.2	28	0	0	38	28	12	6	0	0	0	stim013_stimuli_original_vehicles_planes_1.png	G	0	0	0	66.2128314955044	66.4128605576116
95.94	0.2	29	0	0	38	29	5	8	0	1	0	stim006_stimuli_original_animals_fish_2.png	K	0	0	0	66.6128696273081	66.8128738208325
96.34	0.2	30	0	0	38	30	14	14	0	0	0	stim015_stimuli_original_vehicles_planes_3.png	V	0	0	0	67.0128677743487	67.2128702612245
96.74	0.2	31	0	0	38	31	11	4	0	0	0	stim012_stimuli_original_vehicles_boats_4.png	E	NaN	67.4130653575412	0	67.412880549964	67.6128696273081
97.14	0.2	32	0	0	38	32	6	11	0	0	0	stim007_stimuli_original_animals_fish_3.png	R	0	0	0	67.812873089395	68.012871431536
97.54	0.2	33	0	0	38	33	0	10	0	0	0	stim001_stimuli_original_animals_birds_1.png	Q	0	0	0	68.2129046383779	68.4128873766167
97.94	0.2	34	0	0	38	34	8	3	0	0	0	stim009_stimuli_original_vehicles_boats_1.png	D	0	0	0	68.6129264349001	68.812905516068
98.34	0.2	35	0	0	38	35	2	15	0	0	0	stim003_stimuli_original_animals_birds_3.png	Y	0	0	0	69.0129021515022	69.2129380402621
103.19	0.2	36	1	1	10	0	1	0	0	0	0	stim002_stimuli_original_animals_birds_2.png	A	0	0	0	73.863054678659	74.0630539960111
103.59	0.2	37	1	1	10	1	13	1	0	0	0	stim014_stimuli_original_vehicles_planes_2.png	B	0	0	0	74.2630772066768	74.4630792058888
103.99	0.2	38	1	1	10	2	6	12	0	0	0	stim007_stimuli_original_animals_fish_3.png	T	0	0	0	74.6630899822921	74.8633150671376
104.39	0.2	39	1	1	10	3	9	9	0	0	0	stim010_stimuli_original_vehicles_boats_2.png	L	0	0	0	75.0630991007783	75.2630830581184
104.79	0.2	40	1	1	10	4	0	10	0	0	0	stim001_stimuli_original_animals_birds_1.png	Q	0	0	0	75.4630679906695	75.663110949914
105.19	0.2	41	1	1	10	5	14	3	0	0	0	stim015_stimuli_original_vehicles_planes_3.png	D	0	0	0	75.863119288173	76.0631310397875
105.59	0.2	42	1	1	10	6	4	8	0	0	0	stim005_stimuli_original_animals_fish_1.png	K	0	0	0	76.2631332828314	76.4631318687461
105.99	0.2	43	1	1	10	7	15	15	1	0	0	stim016_stimuli_original_vehicles_planes_4.png	Y	0	0	0	76.6631433765288	76.863145131967
106.39	0.2	44	1	1	10	8	11	4	0	0	0	stim012_stimuli_original_vehicles_boats_4.png	E	0	0	0	77.0631481064484	77.2631518123671
106.79	0.2	45	1	1	10	9	15	13	1	1	0	stim016_stimuli_original_vehicles_planes_4.png	U	0	0	0	77.4631430839654	77.6631436203606
107.19	0.2	46	1	1	10	10	7	14	0	0	0	stim008_stimuli_original_animals_fish_4.png	V	0	0	0	77.8631729262415	78.0631744378479
107.59	0.2	47	1	1	10	11	12	13	0	1	1	stim013_stimuli_original_vehicles_planes_1.png	U	0	0	0	78.2631788752042	78.463183800166
107.99	0.2	48	1	1	10	12	2	2	0	0	0	stim003_stimuli_original_animals_birds_3.png	C	0	0	0	78.663190919382	78.863170975761
108.39	0.2	49	1	1	10	13	5	11	0	0	0	stim006_stimuli_original_animals_fish_2.png	R	0	0	0	79.0632027197862	79.2631888713804
108.79	0.2	50	1	1	10	14	15	13	0	0	0	stim016_stimuli_original_vehicles_planes_4.png	U	0	0	0	79.4631972096977	79.6632170070079
109.19	0.2	51	1	1	10	15	3	7	0	0	0	stim004_stimuli_original_animals_birds_4.png	J	NaN	80.063389234012	1	79.863202183391	80.0632024759543
109.59	0.2	52	1	1	10	16	10	6	0	0	0	stim011_stimuli_original_vehicles_boats_3.png	G	0	0	0	80.2632212980534	80.4632164706127
109.99	0.2	53	1	1	10	17	8	5	0	0	0	stim009_stimuli_original_vehicles_boats_1.png	F	0	0	0	80.6632460203255	80.8632514328929
110.39	0.2	54	1	1	10	18	5	8	0	0	0	stim006_stimuli_original_animals_fish_2.png	K	0	0	0	81.0632412416744	81.2632278808742
110.79	0.2	55	1	1	10	19	6	10	0	0	0	stim007_stimuli_original_animals_fish_3.png	Q	0	0	0	81.4632486534538	81.6632679631584
111.19	0.2	56	1	1	10	20	7	3	0	0	0	stim008_stimuli_original_animals_fish_4.png	D	0	0	0	81.8632765452494	82.0632819578168
111.59	0.2	57	1	1	10	21	13	15	0	0	0	stim014_stimuli_original_vehicles_planes_2.png	Y	0	0	0	82.2632881018217	82.4632908324711
111.99	0.2	58	1	1	10	22	11	5	0	0	0	stim012_stimuli_original_vehicles_boats_4.png	F	0	0	0	82.6633186755353	82.8633038519183
112.39	0.2	59	1	1	10	23	2	2	0	0	0	stim003_stimuli_original_animals_birds_3.png	C	0	0	0	83.0633078016108	83.2633105323184
112.79	0.2	60	1	1	10	24	13	12	1	0	0	stim014_stimuli_original_vehicles_planes_2.png	T	0	0	0	83.463316920097	83.6633072164841
113.19	0.2	61	1	1	10	25	14	7	0	0	0	stim015_stimuli_original_vehicles_planes_3.png	J	0	0	0	83.8633272576262	84.0633516873349
113.59	0.2	62	1	1	10	26	13	15	1	1	0	stim014_stimuli_original_vehicles_planes_2.png	Y	0	0	0	84.263340764679	84.463345445809
113.99	0.2	63	1	1	10	27	4	11	0	0	0	stim005_stimuli_original_animals_fish_1.png	R	0	0	0	84.6633518336457	84.8633540766896
114.39	0.2	64	1	1	10	28	15	15	0	1	1	stim016_stimuli_original_vehicles_planes_4.png	Y	0	0	0	85.0633672911208	85.2633644141606
114.791	0.2	65	1	1	10	29	8	4	0	0	0	stim009_stimuli_original_vehicles_boats_1.png	E	0	0	0	85.4636075409362	85.6633652431192
115.19	0.2	66	1	1	10	30	3	14	0	0	0	stim004_stimuli_original_animals_birds_4.png	V	NaN	86.0551270198775	1	85.8633604157367	86.0633680225583
115.59	0.2	67	1	1	10	31	10	0	0	0	0	stim011_stimuli_original_vehicles_boats_3.png	A	0	0	0	86.2633870884893	86.4633805543417
115.99	0.2	68	1	1	10	32	9	9	0	0	0	stim010_stimuli_original_vehicles_boats_2.png	L	0	0	0	86.6634049840504	86.8633906480973
116.39	0.2	69	1	1	10	33	12	6	0	0	0	stim013_stimuli_original_vehicles_planes_1.png	G	0	0	0	87.0633950853953	87.2634187836666
116.79	0.2	70	1	1	10	34	1	13	0	0	0	stim002_stimuli_original_animals_birds_2.png	U	0	0	0	87.463428097195	87.6634274145472
117.19	0.2	71	1	1	10	35	0	1	0	0	0	stim001_stimuli_original_animals_birds_1.png	B	0	0	0	87.8634364842437	88.0634406777681
121.741	0.2	72	2	0	29	0	7	2	0	0	0	stim008_stimuli_original_animals_fish_4.png	C	0	0	0	92.4135590716614	92.613558876561
122.141	0.2	73	2	0	29	1	6	12	0	0	0	stim007_stimuli_original_animals_fish_3.png	T	0	0	0	92.8135677024839	93.0135757969692
122.541	0.2	74	2	0	29	2	4	13	0	0	0	stim005_stimuli_original_animals_fish_1.png	U	0	0	0	93.2135602419148	93.4135858906666
122.941	0.2	75	2	0	29	3	2	3	0	0	0	stim003_stimuli_original_animals_birds_3.png	D	0	0	0	93.6135703356122	93.8135928148404
123.341	0.2	76	2	0	29	4	3	10	0	0	0	stim004_stimuli_original_animals_birds_4.png	Q	0	0	0	94.0135965207592	94.2135997390724
123.741	0.2	77	2	0	29	5	14	15	0	0	0	stim015_stimuli_original_vehicles_planes_3.png	Y	0	0	0	94.4135953992372	94.6135930098826
124.141	0.2	78	2	0	29	6	8	0	0	0	0	stim009_stimuli_original_vehicles_boats_1.png	A	0	0	0	94.8136069558095	95.0136308979127
124.541	0.2	79	2	0	29	7	5	13	0	1	0	stim006_stimuli_original_animals_fish_2.png	U	0	0	0	95.2136163180694	95.4136307516019
124.941	0.2	80	2	0	29	8	1	11	0	0	0	stim002_stimuli_original_animals_birds_2.png	R	0	0	0	95.6136417717789	95.8136306053493
125.341	0.2	81	2	0	29	9	8	13	1	1	0	stim009_stimuli_original_vehicles_boats_1.png	U	0	0	0	96.013648452179	96.2136370419175
125.741	0.2	82	2	0	29	10	12	14	0	0	0	stim013_stimuli_original_vehicles_planes_1.png	V	0	0	0	96.4136617153999	96.613668834616
126.141	0.2	83	2	0	29	11	8	1	1	0	1	stim009_stimuli_original_vehicles_boats_1.png	B	0	0	0	96.8136913139024	97.0136752711842
126.541	0.2	84	2	0	29	12	9	8	0	0	0	stim010_stimuli_original_vehicles_boats_2.png	K	0	0	0	97.2136860475875	97.4136856087134
126.941	0.2	85	2	0	29	13	11	5	0	0	0	stim012_stimuli_original_vehicles_boats_4.png	F	0	0	0	97.6136932155932	97.8137010662467
127.341	0.2	86	2	0	29	14	10	9	0	0	0	stim011_stimuli_original_vehicles_boats_3.png	L	0	0	0	98.0137033092906	98.2137209123466
127.741	0.2	87	2	0	29	15	0	7	0	0	0	stim001_stimuli_original_animals_birds_1.png	J	0	0	0	98.4137012125575	98.6137041870388
128.141	0.2	88	2	0	29	16	15	6	0	0	0	stim016_stimuli_original_vehicles_planes_4.png	G	0	0	0	98.8137259348296	99.013710623607
128.541	0.2	89	2	0	29	17	13	4	0	0	0	stim014_stimuli_original_vehicles_planes_2.png	E	0	0	0	99.2137360285269	99.4137407096568
128.941	0.2	90	2	0	29	18	4	13	0	0	0	stim005_stimuli_original_animals_fish_1.png	U	0	0	0	99.6139796916978	99.8137373938807
129.341	0.2	91	2	0	29	19	6	15	0	0	0	stim007_stimuli_original_animals_fish_3.png	Y	0	0	0	100.013734760694	100.213738954219
129.741	0.2	92	2	0	29	20	7	0	0	0	0	stim008_stimuli_original_animals_fish_4.png	A	0	0	0	100.41374753631	100.613738076529
130.141	0.2	93	2	0	29	21	9	10	0	0	0	stim010_stimuli_original_vehicles_boats_2.png	Q	0	0	0	100.813755679585	101.013761823589
130.541	0.2	94	2	0	29	22	5	11	0	0	0	stim006_stimuli_original_animals_fish_2.png	R	0	0	0	101.213766260887	101.413768503931
130.941	0.2	95	2	0	29	23	8	9	0	0	0	stim009_stimuli_original_vehicles_boats_1.png	L	0	0	0	101.613773672725	101.813783230027
131.341	0.2	96	2	0	29	24	1	8	0	1	0	stim002_stimuli_original_animals_birds_2.png	K	0	0	0	102.013792543556	102.213809415174
131.741	0.2	97	2	0	29	25	14	12	0	0	0	stim015_stimuli_original_vehicles_planes_3.png	T	0	0	0	102.413815071515	102.613817558391
132.141	0.2	98	2	0	29	26	13	8	1	1	0	stim014_stimuli_original_vehicles_planes_2.png	K	0	0	0	102.813826140482	103.013830090233
132.541	0.2	99	2	0	29	27	11	1	0	0	0	stim012_stimuli_original_vehicles_boats_4.png	B	0	0	0	103.213838916097	103.413839940098
132.941	0.2	100	2	0	29	28	13	5	1	0	1	stim014_stimuli_original_vehicles_planes_2.png	F	0	0	0	103.613870221248	103.81385149667
133.341	0.2	101	2	0	29	29	0	8	0	0	0	stim001_stimuli_original_animals_birds_1.png	K	NaN	104.205626682902	1	104.013860810199	104.213863297075
133.741	0.2	102	2	0	29	30	15	14	0	0	0	stim016_stimuli_original_vehicles_planes_4.png	V	0	0	0	104.413855056278	104.613872171729
134.141	0.2	103	2	0	29	31	10	3	0	0	0	stim011_stimuli_original_vehicles_boats_3.png	D	0	0	0	104.813880022382	105.014301130024
134.541	0.2	104	2	0	29	32	3	2	0	0	0	stim004_stimuli_original_animals_birds_4.png	C	0	0	0	105.213873780856	105.413875292463
134.941	0.2	105	2	0	29	33	13	4	0	0	0	stim014_stimuli_original_vehicles_planes_2.png	E	0	0	0	105.613902647863	105.813906110008
135.341	0.2	106	2	0	29	34	12	6	0	0	0	stim013_stimuli_original_vehicles_planes_1.png	G	NaN	106.205676420068	0	106.013912497787	106.213894748478
135.741	0.2	107	2	0	29	35	2	7	0	0	0	stim003_stimuli_original_animals_birds_3.png	J	0	0	0	106.413931368617	106.613923615485
140.458	0.2	108	3	1	22	0	2	6	0	0	0	stim003_stimuli_original_animals_birds_3.png	G	0	0	0	111.130718672241	111.330723840976
140.858	0.2	109	3	1	22	1	15	0	0	0	0	stim016_stimuli_original_vehicles_planes_4.png	A	0	0	0	111.530732179235	111.730732471857
141.258	0.2	110	3	1	22	2	13	2	0	0	0	stim014_stimuli_original_vehicles_planes_2.png	C	0	0	0	111.930726425373	112.130720135057
141.658	0.2	111	3	1	22	3	8	1	0	0	0	stim009_stimuli_original_vehicles_boats_1.png	B	0	0	0	112.330733593379	112.530753634463
142.058	0.2	112	3	1	22	4	1	11	0	0	0	stim002_stimuli_original_animals_birds_2.png	R	0	0	0	112.730778064171	112.930764703429
142.458	0.2	113	3	1	22	5	5	3	0	0	0	stim006_stimuli_original_animals_fish_2.png	D	0	0	0	113.13077328552	113.330775772396
142.858	0.2	114	3	1	22	6	3	5	0	1	0	stim004_stimuli_original_animals_birds_4.png	F	0	0	0	113.530787036405	113.730786597531
143.258	0.2	115	3	1	22	7	9	14	0	0	0	stim010_stimuli_original_vehicles_boats_2.png	V	0	0	0	113.931327171798	114.130800348357
143.658	0.2	116	3	1	22	8	10	5	0	1	1	stim011_stimuli_original_vehicles_boats_3.png	F	0	0	0	114.330803079065	114.530810929718
144.058	0.2	117	3	1	22	9	15	7	1	0	0	stim016_stimuli_original_vehicles_planes_4.png	J	NaN	114.922609034053	1	114.730812441325	114.9308005434
144.458	0.2	118	3	1	22	10	7	8	0	0	0	stim008_stimuli_original_animals_fish_4.png	K	0	0	0	115.13080254267	115.330809905718
144.858	0.2	119	3	1	22	11	15	4	1	0	0	stim016_stimuli_original_vehicles_planes_4.png	E	0	0	0	115.530810685887	115.730838528951
145.258	0.2	120	3	1	22	12	12	12	0	0	0	stim013_stimuli_original_vehicles_planes_1.png	T	0	0	0	115.930843941518	116.130846915999
145.658	0.2	121	3	1	22	13	14	5	0	0	0	stim015_stimuli_original_vehicles_planes_3.png	F	0	0	0	116.330844526645	116.53086578683
146.058	0.2	122	3	1	22	14	4	9	0	0	0	stim005_stimuli_original_animals_fish_1.png	L	0	0	0	116.730874856526	116.930871491961
146.458	0.2	123	3	1	22	15	0	15	0	0	0	stim001_stimuli_original_animals_birds_1.png	Y	0	0	0	117.130860081699	117.330879879009
146.858	0.2	124	3	1	22	16	11	13	0	0	0	stim012_stimuli_original_vehicles_boats_4.png	U	0	0	0	117.530890167749	117.730892167019
147.258	0.2	125	3	1	22	17	6	10	0	0	0	stim007_stimuli_original_animals_fish_3.png	Q	0	0	0	117.930922935775	118.13089982263
147.658	0.2	126	3	1	22	18	10	6	0	0	0	stim011_stimuli_original_vehicles_boats_3.png	G	0	0	0	118.330912061851	118.530921131547
148.058	0.2	127	3	1	22	19	13	11	0	0	0	stim014_stimuli_original_vehicles_planes_2.png	R	0	0	0	118.730920692731	118.930928055779
148.458	0.2	128	3	1	22	20	15	0	0	0	0	stim016_stimuli_original_vehicles_planes_4.png	A	0	0	0	119.130930542597	119.331177082728
148.858	0.2	129	3	1	22	21	9	4	0	0	0	stim010_stimuli_original_vehicles_boats_2.png	E	0	0	0	119.530944049649	119.730947024131
149.258	0.2	130	3	1	22	22	5	14	0	0	0	stim006_stimuli_original_animals_fish_2.png	V	0	0	0	119.930954387179	120.13094127021
149.658	0.2	131	3	1	22	23	12	12	0	0	0	stim013_stimuli_original_vehicles_planes_1.png	T	0	0	0	120.330961311352	120.53094795061
150.058	0.2	132	3	1	22	24	4	15	0	1	0	stim005_stimuli_original_animals_fish_1.png	Y	0	0	0	120.730974086968	120.930960482394
150.458	0.2	133	3	1	22	25	8	7	0	0	0	stim009_stimuli_original_vehicles_boats_1.png	J	0	0	0	121.130989544501	121.330958629493
150.858	0.2	134	3	1	22	26	7	15	0	1	1	stim008_stimuli_original_animals_fish_4.png	Y	0	0	0	121.530966236314	121.730974818405
151.258	0.2	135	3	1	22	27	5	10	1	0	0	stim006_stimuli_original_animals_fish_2.png	Q	0	0	0	121.931008756685	122.130995395943
151.658	0.2	136	3	1	22	28	14	9	0	0	0	stim015_stimuli_original_vehicles_planes_3.png	L	0	0	0	122.331020069425	122.531021337258
152.058	0.2	137	3	1	22	29	5	3	1	0	0	stim006_stimuli_original_animals_fish_2.png	D	0	0	0	122.731027237431	122.931026067177
152.458	0.2	138	3	1	22	30	3	5	0	0	0	stim004_stimuli_original_animals_birds_4.png	F	0	0	0	123.131038306397	123.331043718965
152.858	0.2	139	3	1	22	31	11	1	0	0	0	stim012_stimuli_original_vehicles_boats_4.png	B	0	0	0	123.531048156263	123.731051374576
153.258	0.2	140	3	1	22	32	1	8	0	0	0	stim002_stimuli_original_animals_birds_2.png	K	0	0	0	123.93105922523	124.131044645444
153.658	0.2	141	3	1	22	33	2	13	0	0	0	stim003_stimuli_original_animals_birds_3.png	U	0	0	0	124.331054202747	124.531055958185
154.058	0.2	142	3	1	22	34	0	15	0	0	0	stim001_stimuli_original_animals_birds_1.png	Y	0	0	0	124.731068197405	124.931088726153
154.458	0.2	143	3	1	22	35	6	2	0	0	0	stim007_stimuli_original_animals_fish_3.png	C	0	0	0	125.131077559723	125.331068343716
158.025	0.2	144	4	0	2	0	9	5	0	0	0	stim010_stimuli_original_vehicles_boats_2.png	F	0	0	0	128.697827706696	128.897830437403
158.425	0.2	145	4	0	2	1	5	12	0	0	0	stim006_stimuli_original_animals_fish_2.png	T	0	0	0	129.09784901567	129.297845407273
158.825	0.2	146	4	0	2	2	7	3	0	0	0	stim008_stimuli_original_animals_fish_4.png	D	0	0	0	129.497852038883	129.697854281927
159.225	0.2	147	4	0	2	3	2	11	0	0	0	stim003_stimuli_original_animals_birds_3.png	R	0	0	0	129.897891633562	130.09787071473
159.625	0.2	148	4	0	2	4	14	13	0	0	0	stim015_stimuli_original_vehicles_planes_3.png	U	0	0	0	130.297891731083	130.497894949338
160.025	0.2	149	4	0	2	5	4	14	0	0	0	stim005_stimuli_original_animals_fish_1.png	V	0	0	0	130.697905238136	130.897933812579
160.425	0.2	150	4	0	2	6	13	0	0	0	0	stim014_stimuli_original_vehicles_planes_2.png	A	0	0	0	131.097909480392	131.297901483485
160.825	0.2	151	4	0	2	7	8	10	0	0	0	stim009_stimuli_original_vehicles_boats_1.png	Q	0	0	0	131.497924206487	131.697931569535
161.225	0.2	152	4	0	2	8	15	1	0	0	0	stim016_stimuli_original_vehicles_planes_4.png	B	0	0	0	131.897934787848	132.097949465155
161.625	0.2	153	4	0	2	9	14	6	1	0	0	stim015_stimuli_original_vehicles_planes_3.png	G	0	0	0	132.29795000155	132.497945174109
162.025	0.2	154	4	0	2	10	11	8	0	0	0	stim012_stimuli_original_vehicles_boats_4.png	K	0	0	0	132.697942297149	132.897963557334
162.425	0.2	155	4	0	2	11	14	4	1	0	1	stim015_stimuli_original_vehicles_planes_3.png	E	0	0	0	133.097966531815	133.297974870075
162.825	0.2	156	4	0	2	12	6	10	0	1	0	stim007_stimuli_original_animals_fish_3.png	Q	0	0	0	133.497977113118	133.697979843826
163.225	0.2	157	4	0	2	13	3	9	0	0	0	stim004_stimuli_original_animals_birds_4.png	L	0	0	0	133.897975016385	134.097959461331
163.625	0.2	158	4	0	2	14	10	10	0	1	0	stim011_stimuli_original_vehicles_boats_3.png	Q	0	0	0	134.298003152013	134.498000762658
164.025	0.2	159	4	0	2	15	12	15	0	0	0	stim013_stimuli_original_vehicles_planes_1.png	Y	0	0	0	134.698008125706	134.897993302089
164.425	0.2	160	4	0	2	16	1	2	0	0	0	stim002_stimuli_original_animals_birds_2.png	C	0	0	0	135.097995301301	135.29802168149
164.825	0.2	161	4	0	2	17	0	7	0	0	0	stim001_stimuli_original_animals_birds_1.png	J	0	0	0	135.498026606452	135.698028849496
165.225	0.2	162	4	0	2	18	7	0	0	0	0	stim008_stimuli_original_animals_fish_4.png	A	0	0	0	135.898037675419	136.098044794635
165.625	0.2	163	4	0	2	19	2	1	0	0	0	stim003_stimuli_original_animals_birds_3.png	B	0	0	0	136.298047769116	136.498049280723
166.025	0.2	164	4	0	2	20	15	12	0	0	0	stim016_stimuli_original_vehicles_planes_4.png	T	0	0	0	136.698057131376	136.89806425065
166.425	0.2	165	4	0	2	21	10	10	1	0	0	stim011_stimuli_original_vehicles_boats_3.png	Q	0	0	0	137.098069663218	137.298056058644
166.825	0.2	166	4	0	2	22	9	3	0	0	0	stim010_stimuli_original_vehicles_boats_2.png	D	0	0	0	137.498080244521	137.698054205684
167.225	0.2	167	4	0	2	23	10	6	1	0	1	stim011_stimuli_original_vehicles_boats_3.png	G	0	0	0	137.898487991421	138.098097945098
167.625	0.2	168	4	0	2	24	4	14	0	1	0	stim005_stimuli_original_animals_fish_1.png	V	0	0	0	138.298099700536	138.498108526459
168.025	0.2	169	4	0	2	25	8	11	0	0	0	stim009_stimuli_original_vehicles_boats_1.png	R	0	0	0	138.698111744714	138.898115938238
168.425	0.2	170	4	0	2	26	6	14	0	1	0	stim007_stimuli_original_animals_fish_3.png	V	0	0	0	139.098111842235	139.298115548154
168.825	0.2	171	4	0	2	27	1	15	0	0	0	stim002_stimuli_original_animals_birds_2.png	Y	0	0	0	139.498133882589	139.69813490659
169.225	0.2	172	4	0	2	28	10	8	0	0	0	stim011_stimuli_original_vehicles_boats_3.png	K	0	0	0	139.898146414431	140.098130371771
169.625	0.2	173	4	0	2	29	0	13	0	0	0	stim001_stimuli_original_animals_birds_1.png	U	0	0	0	140.298137490987	140.498159482609
170.025	0.2	174	4	0	2	30	14	4	0	0	0	stim015_stimuli_original_vehicles_planes_3.png	E	0	0	0	140.6981680647	140.89817274583
170.425	0.2	175	4	0	2	31	13	14	0	0	0	stim014_stimuli_original_vehicles_planes_2.png	V	0	0	0	141.098177914624	141.298152607167
170.825	0.2	176	4	0	2	32	11	2	0	0	0	stim012_stimuli_original_vehicles_boats_4.png	C	0	0	0	141.498159482609	141.69818878849
171.225	0.2	177	4	0	2	33	3	7	0	0	0	stim004_stimuli_original_animals_birds_4.png	J	0	0	0	141.898208342027	142.098203758418
171.625	0.2	178	4	0	2	34	12	5	0	0	0	stim013_stimuli_original_vehicles_planes_1.png	F	0	0	0	142.298207220505	142.498234575905
172.025	0.2	179	4	0	2	35	5	9	0	0	0	stim006_stimuli_original_animals_fish_2.png	L	NaN	142.889984162175	0	142.698218533245	142.898225896293
175.275	0.2	180	5	1	18	0	7	5	0	0	0	stim008_stimuli_original_animals_fish_4.png	F	0	0	0	145.94828704372	146.148291237245
175.675	0.2	181	5	1	18	1	1	12	0	0	0	stim002_stimuli_original_animals_birds_2.png	T	0	0	0	146.348301282153	146.548323517607
176.075	0.2	182	5	1	18	2	11	8	0	0	0	stim012_stimuli_original_vehicles_boats_4.png	K	0	0	0	146.748326735862	146.948316544644
176.475	0.2	183	5	1	18	3	4	0	0	0	0	stim005_stimuli_original_animals_fish_1.png	A	0	0	0	147.148328296258	147.348343461228
176.875	0.2	184	5	1	18	4	8	9	0	0	0	stim009_stimuli_original_vehicles_boats_1.png	L	0	0	0	147.548352043319	147.748344046355
177.275	0.2	185	5	1	18	5	13	10	0	0	0	stim014_stimuli_original_vehicles_planes_2.png	Q	0	0	0	147.948360917973	148.148382665764
177.675	0.2	186	5	1	18	6	12	15	0	0	0	stim013_stimuli_original_vehicles_planes_1.png	Y	0	0	0	148.348373937362	148.548370572797
178.075	0.2	187	5	1	18	7	15	6	1	0	0	stim016_stimuli_original_vehicles_planes_4.png	G	0	0	0	148.748377204407	148.948369207501
178.475	0.2	188	5	1	18	8	14	13	0	0	0	stim015_stimuli_original_vehicles_planes_3.png	U	0	0	0	149.148358041013	149.348393929773
178.875	0.2	189	5	1	18	9	15	3	1	0	0	stim016_stimuli_original_vehicles_planes_4.png	D	0	0	0	149.548405437556	149.748402560595
179.275	0.2	190	5	1	18	10	2	2	0	0	0	stim003_stimuli_original_animals_birds_3.png	C	0	0	0	149.948410655081	150.148413141957
179.675	0.2	191	5	1	18	11	6	15	0	1	0	stim007_stimuli_original_animals_fish_3.png	Y	0	0	0	150.348401975469	150.548399098509
180.075	0.2	192	5	1	18	12	9	1	0	0	0	stim010_stimuli_original_vehicles_boats_2.png	B	0	0	0	150.748436206311	150.948618136928
180.475	0.2	193	5	1	18	13	15	15	0	1	1	stim016_stimuli_original_vehicles_planes_4.png	Y	0	0	0	151.148414361	151.348451712576
180.875	0.2	194	5	1	18	14	10	4	0	0	0	stim011_stimuli_original_vehicles_boats_3.png	E	0	0	0	151.548451517534	151.748473021551
181.275	0.2	195	5	1	18	15	5	11	0	0	0	stim006_stimuli_original_animals_fish_2.png	R	NaN	151.941016158729	1	151.948448933137	152.148465560982
181.675	0.2	196	5	1	18	16	0	14	0	0	0	stim001_stimuli_original_animals_birds_1.png	V	0	0	0	152.348472436366	152.548476386117
182.075	0.2	197	5	1	18	17	3	7	0	0	0	stim004_stimuli_original_animals_birds_4.png	J	0	0	0	152.748484968208	152.948490380775
182.475	0.2	198	5	1	18	18	7	3	0	0	0	stim008_stimuli_original_animals_fish_4.png	D	0	0	0	153.148477020033	153.348479750683
182.875	0.2	199	5	1	18	19	14	0	0	0	0	stim015_stimuli_original_vehicles_planes_3.png	A	0	0	0	153.548511982255	153.748498133908
183.275	0.2	200	5	1	18	20	11	5	0	0	0	stim012_stimuli_original_vehicles_boats_4.png	F	0	0	0	153.94851719978	154.148517980007
183.675	0.2	201	5	1	18	21	4	10	0	0	0	stim005_stimuli_original_animals_fish_1.png	Q	0	0	0	154.348525586829	154.548528317537
184.075	0.2	202	5	1	18	22	15	15	1	0	0	stim016_stimuli_original_vehicles_planes_4.png	Y	0	0	0	154.748539093882	154.948542555969
184.475	0.2	203	5	1	18	23	1	9	0	0	0	stim002_stimuli_original_animals_birds_2.png	L	0	0	0	155.148548212368	155.348553868767
184.875	0.2	204	5	1	18	24	15	6	1	0	0	stim016_stimuli_original_vehicles_planes_4.png	G	0	0	0	155.548555136542	155.748565912945
185.275	0.2	205	5	1	18	25	2	2	0	0	0	stim003_stimuli_original_animals_birds_3.png	C	0	0	0	155.948568155989	156.148571618076
185.675	0.2	206	5	1	18	26	3	15	0	1	0	stim004_stimuli_original_animals_birds_4.png	Y	0	0	0	156.348560207814	156.548585856566
186.075	0.2	207	5	1	18	27	13	14	0	0	0	stim014_stimuli_original_vehicles_planes_2.png	V	0	0	0	156.748596389138	156.948611066444
186.475	0.2	208	5	1	18	28	6	15	0	1	1	stim007_stimuli_original_animals_fish_3.png	Y	0	0	0	157.148588440905	157.348603849648
186.875	0.2	209	5	1	18	29	15	12	0	0	0	stim016_stimuli_original_vehicles_planes_4.png	T	0	0	0	157.548610237485	157.748614918615
187.275	0.2	210	5	1	18	30	10	13	0	0	0	stim011_stimuli_original_vehicles_boats_3.png	U	0	0	0	157.948622037889	158.148626231356
187.675	0.2	211	5	1	18	31	9	8	0	0	0	stim010_stimuli_original_vehicles_boats_2.png	K	0	0	0	158.348633838235	158.548618770787
188.075	0.2	212	5	1	18	32	0	4	0	0	0	stim001_stimuli_original_animals_birds_1.png	E	0	0	0	158.748653928109	158.948647150246
188.475	0.2	213	5	1	18	33	8	11	0	0	0	stim009_stimuli_original_vehicles_boats_1.png	R	0	0	0	159.14865402563	159.348640421114
188.875	0.2	214	5	1	18	34	12	1	0	0	0	stim013_stimuli_original_vehicles_planes_1.png	B	0	0	0	159.548665338429	159.748668800516
189.275	0.2	215	5	1	18	35	5	7	0	0	0	stim006_stimuli_original_animals_fish_2.png	J	0	0	0	159.948662022594	160.148689134221
191.909	0.2	216	6	0	20	0	10	12	0	0	0	stim011_stimuli_original_vehicles_boats_3.png	T	0	0	0	162.582084053836	162.7820711807
192.309	0.2	217	6	0	20	1	9	10	0	0	0	stim010_stimuli_original_vehicles_boats_2.png	Q	0	0	0	162.982074642787	163.18210126675
192.709	0.2	218	6	0	20	2	14	7	0	0	0	stim015_stimuli_original_vehicles_planes_3.png	J	0	0	0	163.382114237407	163.582108922361
193.109	0.2	219	6	0	20	3	13	6	0	0	0	stim014_stimuli_original_vehicles_planes_2.png	G	0	0	0	163.782120430202	163.982120966539
193.509	0.2	220	6	0	20	4	15	8	0	0	0	stim016_stimuli_original_vehicles_planes_4.png	K	0	0	0	164.182123697246	164.382128865982
193.909	0.2	221	6	0	20	5	2	15	0	0	0	stim003_stimuli_original_animals_birds_3.png	Y	0	0	0	164.582135985198	164.782128475897
194.309	0.2	222	6	0	20	6	1	5	0	0	0	stim002_stimuli_original_animals_birds_2.png	F	0	0	0	164.982152174169	165.182151491521
194.709	0.2	223	6	0	20	7	9	4	1	0	0	stim010_stimuli_original_vehicles_boats_2.png	E	0	0	0	165.382158854569	165.582152564253
195.109	0.2	224	6	0	20	8	3	2	0	0	0	stim004_stimuli_original_animals_birds_4.png	C	0	0	0	165.78216919204	165.982171922748
195.509	0.2	225	6	0	20	9	9	13	1	1	1	stim010_stimuli_original_vehicles_boats_2.png	U	0	0	0	166.182169533393	166.382181528839
195.909	0.2	226	6	0	20	10	11	0	0	0	0	stim012_stimuli_original_vehicles_boats_4.png	A	0	0	0	166.582175969961	166.782194060623
196.309	0.2	227	6	0	20	11	4	13	0	1	0	stim005_stimuli_original_animals_fish_1.png	U	0	0	0	166.982190939889	167.18217587244
196.709	0.2	228	6	0	20	12	7	1	0	0	0	stim008_stimuli_original_animals_fish_4.png	B	0	0	0	167.382203471672	167.582209615677
197.109	0.2	229	6	0	20	13	5	9	0	0	0	stim006_stimuli_original_animals_fish_2.png	L	0	0	0	167.78222307394	167.982226536027
197.509	0.2	230	6	0	20	14	0	3	0	0	0	stim001_stimuli_original_animals_birds_1.png	D	0	0	0	168.182235849556	168.382237848826
197.909	0.2	231	6	0	20	15	8	11	0	0	0	stim009_stimuli_original_vehicles_boats_1.png	R	0	0	0	168.582705036446	168.782249405398
198.309	0.2	232	6	0	20	16	6	14	0	0	0	stim007_stimuli_original_animals_fish_3.png	V	0	0	0	168.982238482684	169.182239506685
198.709	0.2	233	6	0	20	17	12	13	0	0	0	stim013_stimuli_original_vehicles_planes_1.png	U	0	0	0	169.382261985913	169.582265691832
199.109	0.2	234	6	0	20	18	13	12	0	0	0	stim014_stimuli_original_vehicles_planes_2.png	T	0	0	0	169.782275980629	169.982278711279
199.509	0.2	235	6	0	20	19	14	6	0	0	0	stim015_stimuli_original_vehicles_planes_3.png	G	0	0	0	170.182285830495	170.382288073539
199.909	0.2	236	6	0	20	20	11	8	0	0	0	stim012_stimuli_original_vehicles_boats_4.png	K	0	0	0	170.582294948981	170.782301580592
200.309	0.2	237	6	0	20	21	3	0	0	0	0	stim004_stimuli_original_animals_birds_4.png	A	0	0	0	170.982305774116	171.182314112375
200.709	0.2	238	6	0	20	22	9	5	0	0	0	stim010_stimuli_original_vehicles_boats_2.png	F	0	0	0	171.382297094504	171.582302994677
201.109	0.2	239	6	0	20	23	1	7	0	0	0	stim002_stimuli_original_animals_birds_2.png	J	0	0	0	171.782304506283	171.982313819812
201.509	0.2	240	6	0	20	24	13	4	1	0	0	stim014_stimuli_original_vehicles_planes_2.png	E	0	0	0	172.182318744774	172.382319281169
201.909	0.2	241	6	0	20	25	0	11	0	0	0	stim001_stimuli_original_animals_birds_1.png	R	0	0	0	172.582354194659	172.782358875789
202.309	0.2	242	6	0	20	26	13	9	1	1	1	stim014_stimuli_original_vehicles_planes_2.png	L	0	0	0	172.982358924579	173.182368481881
202.709	0.2	243	6	0	20	27	2	3	0	0	0	stim003_stimuli_original_animals_birds_3.png	D	NaN	173.374939657166	1	173.382369749714	173.582378331805
203.109	0.2	244	6	0	20	28	4	9	0	1	0	stim005_stimuli_original_animals_fish_1.png	L	0	0	0	173.7823788682	173.982828501554
203.509	0.2	245	6	0	20	29	5	1	0	0	0	stim006_stimuli_original_animals_fish_2.png	B	0	0	0	174.182378234284	174.382376332593
203.909	0.2	246	6	0	20	30	15	2	0	0	0	stim016_stimuli_original_vehicles_planes_4.png	C	0	0	0	174.58238174516	174.782405199599
204.309	0.2	247	6	0	20	31	8	15	0	0	0	stim009_stimuli_original_vehicles_boats_1.png	Y	0	0	0	174.98241378169	175.182407491433
204.709	0.2	248	6	0	20	32	6	13	0	0	0	stim007_stimuli_original_animals_fish_3.png	U	0	0	0	175.382404370641	175.582405638474
205.109	0.2	249	6	0	20	33	7	14	0	0	0	stim008_stimuli_original_animals_fish_4.png	V	0	0	0	175.782434456749	175.982437187398
205.509	0.2	250	6	0	20	34	10	9	0	0	0	stim011_stimuli_original_vehicles_boats_3.png	L	0	0	0	176.182433822833	176.382427532517
205.909	0.2	251	6	0	20	35	12	10	0	0	0	stim013_stimuli_original_vehicles_planes_1.png	Q	0	0	0	176.582458788936	176.782441771007
207.976	0.2	252	7	1	15	0	7	6	0	0	0	stim008_stimuli_original_animals_fish_4.png	G	0	0	0	178.649186017865	178.849177045631
208.376	0.2	253	7	1	15	1	14	10	0	0	0	stim015_stimuli_original_vehicles_planes_3.png	Q	0	0	0	179.049190747726	179.24916275841
208.776	0.2	254	7	1	15	2	13	9	0	0	0	stim014_stimuli_original_vehicles_planes_2.png	L	0	0	0	179.449173290981	179.649176509294
209.176	0.2	255	7	1	15	3	3	11	0	0	0	stim004_stimuli_original_animals_birds_4.png	R	0	0	0	179.849184359948	180.049188553472
209.576	0.2	256	7	1	15	4	9	14	0	0	0	stim010_stimuli_original_vehicles_boats_2.png	V	0	0	0	180.249196891731	180.449617024162
209.976	0.2	257	7	1	15	5	12	15	0	0	0	stim013_stimuli_original_vehicles_planes_1.png	Y	0	0	0	180.6492177131	180.849213617097
210.376	0.2	258	7	1	15	6	2	2	1	0	0	stim003_stimuli_original_animals_birds_3.png	C	0	0	0	181.04922512488	181.249224686006
210.776	0.2	259	7	1	15	7	8	13	0	0	0	stim009_stimuli_original_vehicles_boats_1.png	U	0	0	0	181.449226197612	181.649220151186
211.176	0.2	260	7	1	15	8	2	12	1	1	0	stim003_stimuli_original_animals_birds_3.png	T	0	0	0	181.849237266579	182.049240484892
211.576	0.2	261	7	1	15	9	4	0	0	0	0	stim005_stimuli_original_animals_fish_1.png	A	0	0	0	182.249253699323	182.449269108125
211.976	0.2	262	7	1	15	10	11	12	0	1	1	stim012_stimuli_original_vehicles_boats_4.png	T	0	0	0	182.649262817809	182.849282858951
212.376	0.2	263	7	1	15	11	15	4	0	0	0	stim016_stimuli_original_vehicles_planes_4.png	E	0	0	0	183.049287052476	183.249279055512
212.776	0.2	264	7	1	15	12	2	5	0	0	0	stim003_stimuli_original_animals_birds_3.png	F	0	0	0	183.449283249036	183.649306703534
213.176	0.2	265	7	1	15	13	1	8	0	0	0	stim002_stimuli_original_animals_birds_2.png	K	0	0	0	183.849310409394	184.049300462008
213.576	0.2	266	7	1	15	14	0	3	0	0	0	stim001_stimuli_original_animals_birds_1.png	D	0	0	0	184.249319771712	184.44933274237
213.976	0.2	267	7	1	15	15	5	7	0	0	0	stim006_stimuli_original_animals_fish_2.png	J	0	0	0	184.649332791101	184.849319917965
214.376	0.2	268	7	1	15	16	6	12	0	0	0	stim007_stimuli_original_animals_fish_3.png	T	0	0	0	185.049340202939	185.249346103112
214.776	0.2	269	7	1	15	17	10	1	0	0	0	stim011_stimuli_original_vehicles_boats_3.png	B	0	0	0	185.449356148078	185.649328890198
215.176	0.2	270	7	1	15	18	1	10	0	0	0	stim002_stimuli_original_animals_birds_2.png	Q	0	0	0	185.84936014656	186.049365802901
215.576	0.2	271	7	1	15	19	12	6	0	0	0	stim013_stimuli_original_vehicles_planes_1.png	G	0	0	0	186.249371946906	186.449377115699
215.976	0.2	272	7	1	15	20	7	5	0	0	0	stim008_stimuli_original_animals_fish_4.png	F	0	0	0	186.649384722521	186.849393548444
216.376	0.2	273	7	1	15	21	3	0	0	0	0	stim004_stimuli_original_animals_birds_4.png	A	0	0	0	187.04939506005	187.249398522137
216.776	0.2	274	7	1	15	22	8	1	0	0	0	stim009_stimuli_original_vehicles_boats_1.png	B	0	0	0	187.449390525173	187.649410322541
217.176	0.2	275	7	1	15	23	5	2	0	0	0	stim006_stimuli_original_animals_fish_2.png	C	0	0	0	187.849423780804	188.049402861972
217.576	0.2	276	7	1	15	24	4	15	0	0	0	stim005_stimuli_original_animals_fish_1.png	Y	0	0	0	188.249441432592	188.449434898503
217.976	0.2	277	7	1	15	25	12	11	1	0	0	stim013_stimuli_original_vehicles_planes_1.png	R	0	0	0	188.649439092027	188.84942426841
218.376	0.2	278	7	1	15	26	0	4	0	0	0	stim001_stimuli_original_animals_birds_1.png	E	0	0	0	189.049436263856	189.2494516726
218.776	0.2	279	7	1	15	27	12	2	1	1	0	stim013_stimuli_original_vehicles_planes_1.png	C	0	0	0	189.449457572773	189.649482002482
219.176	0.2	280	7	1	15	28	13	8	0	0	0	stim014_stimuli_original_vehicles_planes_2.png	K	0	0	0	189.849475712224	190.049473079096
219.576	0.2	281	7	1	15	29	2	2	0	1	1	stim003_stimuli_original_animals_birds_3.png	C	0	0	0	190.249481661187	190.449486098485
219.976	0.2	282	7	1	15	30	15	12	0	0	0	stim016_stimuli_original_vehicles_planes_4.png	T	0	0	0	190.649472493911	190.849476931267
220.376	0.2	283	7	1	15	31	14	9	0	0	0	stim015_stimuli_original_vehicles_planes_3.png	L	NaN	191.042059809377	1	191.049725421821	191.249510186841
220.776	0.2	284	7	1	15	32	11	3	0	0	0	stim012_stimuli_original_vehicles_boats_4.png	D	0	0	0	191.449516087072	191.649496631057
221.176	0.2	285	7	1	15	33	9	13	0	0	0	stim010_stimuli_original_vehicles_boats_2.png	U	0	0	0	191.849499361706	192.049528179981
221.576	0.2	286	7	1	15	34	10	14	0	0	0	stim011_stimuli_original_vehicles_boats_3.png	V	0	0	0	192.24953749351	192.449534860381
221.976	0.2	287	7	1	15	35	6	7	0	0	0	stim007_stimuli_original_animals_fish_3.png	J	0	0	0	192.649550269125	192.849547635997
227.476	0.2	288	8	0	7	0	9	15	0	0	0	stim010_stimuli_original_vehicles_boats_2.png	Y	0	0	0	198.14967339288	198.349699285463
227.876	0.2	289	8	0	7	1	3	2	0	0	0	stim004_stimuli_original_animals_birds_4.png	C	0	0	0	198.549707867554	198.749692068726
228.276	0.2	290	8	0	7	2	2	11	0	0	0	stim003_stimuli_original_animals_birds_3.png	R	0	0	0	198.94972064317	199.149718497647
228.676	0.2	291	8	0	7	3	5	9	0	0	0	stim006_stimuli_original_animals_fish_2.png	L	0	0	0	199.349731224531	199.549733223743
229.076	0.2	292	8	0	7	4	11	12	0	0	0	stim012_stimuli_original_vehicles_boats_4.png	T	0	0	0	199.749723276298	199.949720155564
229.476	0.2	293	8	0	7	5	4	1	0	0	0	stim005_stimuli_original_animals_fish_1.png	B	0	0	0	200.149718497647	200.34972927405
229.876	0.2	294	8	0	7	6	8	7	0	0	0	stim009_stimuli_original_vehicles_boats_1.png	J	0	0	0	200.549736149434	200.749744731525
230.277	0.2	295	8	0	7	7	9	14	1	0	0	stim010_stimuli_original_vehicles_boats_2.png	V	0	0	0	200.950252391573	201.149781644286
230.676	0.2	296	8	0	7	8	1	9	0	1	0	stim002_stimuli_original_animals_birds_2.png	L	0	0	0	201.349768283544	201.549782473245
231.076	0.2	297	8	0	7	9	9	10	1	0	1	stim010_stimuli_original_vehicles_boats_2.png	Q	0	0	0	201.749791055336	201.949795492692
231.476	0.2	298	8	0	7	10	6	9	0	1	0	stim007_stimuli_original_animals_fish_3.png	L	NaN	202.341551417951	1	202.149787008122	202.34980753687
231.876	0.2	299	8	0	7	11	14	13	0	0	0	stim015_stimuli_original_vehicles_planes_3.png	U	0	0	0	202.549814412254	202.749815680087
232.276	0.2	300	8	0	7	12	12	8	0	0	0	stim013_stimuli_original_vehicles_planes_1.png	K	0	0	0	202.949809389829	203.149832600495
232.676	0.2	301	8	0	7	13	0	4	0	0	0	stim001_stimuli_original_animals_birds_1.png	E	0	0	0	203.349835087312	203.549824652262
233.076	0.2	302	8	0	7	14	7	5	0	0	0	stim008_stimuli_original_animals_fish_4.png	F	0	0	0	203.749828602013	203.949822555529
233.476	0.2	303	8	0	7	15	15	6	0	0	0	stim016_stimuli_original_vehicles_planes_4.png	G	0	0	0	204.14983113762	204.349834355875
233.876	0.2	304	8	0	7	16	10	3	0	0	0	stim011_stimuli_original_vehicles_boats_3.png	D	0	0	0	204.549840743712	204.749868099112
234.276	0.2	305	8	0	7	17	13	0	0	0	0	stim014_stimuli_original_vehicles_planes_2.png	A	0	0	0	204.949897404993	205.149863076629
234.676	0.2	306	8	0	7	18	0	13	0	0	0	stim001_stimuli_original_animals_birds_1.png	U	0	0	0	205.349892138736	205.549891456089
235.076	0.2	307	8	0	7	19	3	10	0	0	0	stim004_stimuli_original_animals_birds_4.png	Q	0	0	0	205.749880045769	205.949884239293
235.476	0.2	308	8	0	7	20	6	15	0	0	0	stim007_stimuli_original_animals_fish_3.png	Y	0	0	0	206.149907937564	206.350145944336
235.876	0.2	309	8	0	7	21	5	7	0	0	0	stim006_stimuli_original_animals_fish_2.png	J	0	0	0	206.54989998939	206.749896624824
236.277	0.2	310	8	0	7	22	4	0	0	0	0	stim005_stimuli_original_animals_fish_1.png	A	0	0	0	206.949905694521	207.14993207471
236.677	0.2	311	8	0	7	23	8	12	0	0	0	stim009_stimuli_original_vehicles_boats_1.png	T	0	0	0	207.349938950152	207.549946069368
237.077	0.2	312	8	0	7	24	13	14	0	0	0	stim014_stimuli_original_vehicles_planes_2.png	V	0	0	0	207.749933196232	207.949940071674
237.477	0.2	313	8	0	7	25	9	6	1	0	0	stim010_stimuli_original_vehicles_boats_2.png	G	0	0	0	208.149963038508	208.349965525384
237.877	0.2	314	8	0	7	26	10	9	0	1	0	stim011_stimuli_original_vehicles_boats_3.png	L	0	0	0	208.549970450345	208.749973180995
238.277	0.2	315	8	0	7	27	9	1	1	0	1	stim010_stimuli_original_vehicles_boats_2.png	B	0	0	0	208.949980300211	209.149985469005
238.677	0.2	316	8	0	7	28	14	9	0	1	0	stim015_stimuli_original_vehicles_planes_3.png	L	0	0	0	209.349976009165	209.549996294139
239.077	0.2	317	8	0	7	29	7	8	0	0	0	stim008_stimuli_original_animals_fish_4.png	K	0	0	0	209.749993417179	209.950005168794
239.477	0.2	318	8	0	7	30	1	4	0	0	0	stim002_stimuli_original_animals_birds_2.png	E	0	0	0	210.149998390872	210.350015262491
239.877	0.2	319	8	0	7	31	12	11	0	0	0	stim013_stimuli_original_vehicles_planes_1.png	R	0	0	0	210.550023113145	210.750018529536
240.277	0.2	320	8	0	7	32	9	5	0	0	0	stim010_stimuli_original_vehicles_boats_2.png	F	0	0	0	210.950010776403	211.150038619409
240.677	0.2	321	8	0	7	33	11	2	0	0	0	stim012_stimuli_original_vehicles_boats_4.png	C	0	0	0	211.350047932938	211.550048956939
241.077	0.2	322	8	0	7	34	2	3	0	0	0	stim003_stimuli_original_animals_birds_3.png	D	0	0	0	211.750060708553	211.950030768756
241.477	0.2	323	8	0	7	35	15	9	0	0	0	stim016_stimuli_original_vehicles_planes_4.png	L	0	0	0	212.150053735648	212.350075483439
244.21	0.2	324	9	1	8	0	14	2	0	0	0	stim015_stimuli_original_vehicles_planes_3.png	C	0	0	0	214.883468598826	215.083472548518
244.61	0.2	325	9	1	8	1	1	9	0	0	0	stim002_stimuli_original_animals_birds_2.png	L	0	0	0	215.283477229706	215.483475571789
245.01	0.2	326	9	1	8	2	6	15	0	0	0	stim007_stimuli_original_animals_fish_3.png	Y	0	0	0	215.683488542447	215.883489078842
245.41	0.2	327	9	1	8	3	7	4	0	0	0	stim008_stimuli_original_animals_fish_4.png	E	0	0	0	216.083496685664	216.283500391582
245.81	0.2	328	9	1	8	4	11	5	0	0	0	stim012_stimuli_original_vehicles_boats_4.png	F	0	0	0	216.483518726076	216.683520237682
246.21	0.2	329	9	1	8	5	0	10	0	1	0	stim001_stimuli_original_animals_birds_1.png	Q	0	0	0	216.88351248455	217.083533500903
246.61	0.2	330	9	1	8	6	4	13	0	0	0	stim005_stimuli_original_animals_fish_1.png	U	0	0	0	217.28352184681	217.483548958437
247.01	0.2	331	9	1	8	7	2	10	0	1	1	stim003_stimuli_original_animals_birds_3.png	Q	0	0	0	217.683527064335	217.883528819773
247.41	0.2	332	9	1	8	8	11	7	1	0	0	stim012_stimuli_original_vehicles_boats_4.png	J	0	0	0	218.083553249482	218.283554273483
247.81	0.2	333	9	1	8	9	3	12	0	0	0	stim004_stimuli_original_animals_birds_4.png	T	0	0	0	218.483565781265	218.683566805266
248.21	0.2	334	9	1	8	10	11	10	1	0	0	stim012_stimuli_original_vehicles_boats_4.png	Q	0	0	0	218.883556857822	219.083607862762
248.61	0.2	335	9	1	8	11	15	1	0	0	0	stim016_stimuli_original_vehicles_planes_4.png	B	0	0	0	219.283588162973	219.483588455536
249.01	0.2	336	9	1	8	12	13	11	0	0	0	stim014_stimuli_original_vehicles_planes_2.png	R	0	0	0	219.683597037627	219.883589284495
249.41	0.2	337	9	1	8	13	9	8	0	0	0	stim010_stimuli_original_vehicles_boats_2.png	K	0	0	0	220.083612251328	220.283611812512
249.81	0.2	338	9	1	8	14	12	0	0	0	0	stim013_stimuli_original_vehicles_planes_1.png	A	0	0	0	220.483618687897	220.683606546198
250.21	0.2	339	9	1	8	15	8	14	0	0	0	stim009_stimuli_original_vehicles_boats_1.png	V	0	0	0	220.883627074945	221.083637363743
250.61	0.2	340	9	1	8	16	10	3	0	0	0	stim011_stimuli_original_vehicles_boats_3.png	D	0	0	0	221.28362473438	221.483640386956
251.01	0.2	341	9	1	8	17	5	6	0	0	0	stim006_stimuli_original_animals_fish_2.png	G	0	0	0	221.683650431922	221.883635120699
251.41	0.2	342	9	1	8	18	6	5	0	0	0	stim007_stimuli_original_animals_fish_3.png	F	0	0	0	222.083660038013	222.283667401061
251.81	0.2	343	9	1	8	19	3	10	0	0	0	stim004_stimuli_original_animals_birds_4.png	Q	0	0	0	222.483655015531	222.683672618587
252.21	0.2	344	9	1	8	20	14	8	0	0	0	stim015_stimuli_original_vehicles_planes_3.png	K	0	0	0	222.883685345412	223.083683443721
252.61	0.2	345	9	1	8	21	0	12	0	0	0	stim001_stimuli_original_animals_birds_1.png	T	0	0	0	223.283693976293	223.483697682153
253.01	0.2	346	9	1	8	22	8	9	0	0	0	stim009_stimuli_original_vehicles_boats_1.png	L	0	0	0	223.68370211951	223.883704606385
253.411	0.2	347	9	1	8	23	11	13	0	0	0	stim012_stimuli_original_vehicles_boats_4.png	U	0	0	0	224.084108403535	224.283722745779
253.81	0.2	348	9	1	8	24	1	15	0	0	0	stim002_stimuli_original_animals_birds_2.png	Y	0	0	0	224.48370499647	224.683726988093
254.21	0.2	349	9	1	8	25	10	11	0	1	0	stim011_stimuli_original_vehicles_boats_3.png	R	0	0	0	224.883721429214	225.083768045588
254.61	0.2	350	9	1	8	26	12	3	0	0	0	stim013_stimuli_original_vehicles_planes_1.png	D	0	0	0	225.283733960998	225.483739373565
255.01	0.2	351	9	1	8	27	7	11	0	1	1	stim008_stimuli_original_animals_fish_4.png	R	0	0	0	225.683768923278	225.883754343493
255.41	0.2	352	9	1	8	28	10	2	1	0	0	stim011_stimuli_original_vehicles_boats_3.png	C	0	0	0	226.083769996068	226.283764193417
255.81	0.2	353	9	1	8	29	13	4	0	0	0	stim014_stimuli_original_vehicles_planes_2.png	E	0	0	0	226.483763510711	226.683776969032
256.21	0.2	354	9	1	8	30	10	0	1	0	0	stim011_stimuli_original_vehicles_boats_3.png	A	0	0	0	226.883785551123	227.083789256983
256.61	0.2	355	9	1	8	31	5	11	0	0	0	stim006_stimuli_original_animals_fish_2.png	R	0	0	0	227.283817343821	227.483803495474
257.01	0.2	356	9	1	8	32	4	7	0	0	0	stim005_stimuli_original_animals_fish_1.png	J	0	0	0	227.683781113767	227.883815539652
257.41	0.2	357	9	1	8	33	15	6	0	0	0	stim016_stimuli_original_vehicles_planes_4.png	G	0	0	0	228.083819001738	228.283793206734
257.81	0.2	358	9	1	8	34	9	1	0	0	0	stim010_stimuli_original_vehicles_boats_2.png	B	0	0	0	228.483806177392	228.683848161367
258.21	0.2	359	9	1	8	35	2	14	0	0	0	stim003_stimuli_original_animals_birds_3.png	V	0	0	0	228.883848210098	229.083842407446
263.694	0.2	360	10	0	10	0	1	0	0	0	0	stim002_stimuli_original_animals_birds_2.png	A	0	0	0	234.367327439017	234.56732773158
264.094	0.2	361	10	0	10	1	13	1	0	0	0	stim014_stimuli_original_vehicles_planes_2.png	B	0	0	0	234.767341677507	234.967341482465
264.494	0.2	362	10	0	10	2	6	12	0	0	0	stim007_stimuli_original_animals_fish_3.png	T	0	0	0	235.16736469313	235.367365473299
264.894	0.2	363	10	0	10	3	9	9	0	0	0	stim010_stimuli_original_vehicles_boats_2.png	L	0	0	0	235.567341384944	235.76736362034
265.294	0.2	364	10	0	10	4	0	10	0	0	0	stim001_stimuli_original_animals_birds_1.png	Q	0	0	0	235.96737025195	236.1673729826
265.694	0.2	365	10	0	10	5	14	3	0	0	0	stim015_stimuli_original_vehicles_planes_3.png	D	0	0	0	236.367377907562	236.567385026836
266.094	0.2	366	10	0	10	6	4	8	0	0	0	stim005_stimuli_original_animals_fish_1.png	K	0	0	0	236.76738629461	236.96738902526
266.494	0.2	367	10	0	10	7	15	15	1	0	0	stim016_stimuli_original_vehicles_planes_4.png	Y	0	0	0	237.167395413097	237.367396680871
266.894	0.2	368	10	0	10	8	11	4	0	0	0	stim012_stimuli_original_vehicles_boats_4.png	E	0	0	0	237.567391853489	237.767392877489
267.294	0.2	369	10	0	10	9	15	13	1	1	1	stim016_stimuli_original_vehicles_planes_4.png	U	0	0	0	237.967419989058	238.167421500722
267.694	0.2	370	10	0	10	10	7	14	0	0	0	stim008_stimuli_original_animals_fish_4.png	V	0	0	0	238.367430326587	238.567440127721
268.094	0.2	371	10	0	10	11	12	13	0	1	0	stim013_stimuli_original_vehicles_planes_1.png	U	0	0	0	238.767440907948	238.967443638598
268.494	0.2	372	10	0	10	12	2	2	0	0	0	stim003_stimuli_original_animals_birds_3.png	C	0	0	0	239.167448563559	239.367665115104
268.894	0.2	373	10	0	10	13	5	11	0	0	0	stim006_stimuli_original_animals_fish_2.png	R	0	0	0	239.567460120132	239.767446271726
269.294	0.2	374	10	0	10	14	15	13	0	0	0	stim016_stimuli_original_vehicles_planes_4.png	U	0	0	0	239.967469969997	240.167477089271
269.694	0.2	375	10	0	10	15	3	7	0	0	0	stim004_stimuli_original_animals_birds_4.png	J	0	0	0	240.367478844651	240.567468409659
270.094	0.2	376	10	0	10	16	10	6	0	0	0	stim011_stimuli_original_vehicles_boats_3.png	G	0	0	0	240.767492107931	240.967495813791
270.494	0.2	377	10	0	10	17	8	5	0	0	0	stim009_stimuli_original_vehicles_boats_1.png	F	0	0	0	241.167504152108	241.367504688504
270.894	0.2	378	10	0	10	18	5	8	0	0	0	stim006_stimuli_original_animals_fish_2.png	K	0	0	0	241.567512782931	241.767513806932
271.294	0.2	379	10	0	10	19	6	10	0	0	0	stim007_stimuli_original_animals_fish_3.png	Q	0	0	0	241.967525314773	242.167512929242
271.694	0.2	380	10	0	10	20	7	3	0	0	0	stim008_stimuli_original_animals_fish_4.png	D	0	0	0	242.367537115118	242.567535944865
272.094	0.2	381	10	0	10	21	13	15	0	0	0	stim014_stimuli_original_vehicles_planes_2.png	Y	0	0	0	242.76754403935	242.967575783317
272.494	0.2	382	10	0	10	22	11	5	0	0	0	stim012_stimuli_original_vehicles_boats_4.png	F	0	0	0	243.167554864485	243.36756929796
272.894	0.2	383	10	0	10	23	2	2	0	0	0	stim003_stimuli_original_animals_birds_3.png	C	0	0	0	243.567566908663	243.767568907875
273.294	0.2	384	10	0	10	24	13	12	1	0	0	stim014_stimuli_original_vehicles_planes_2.png	T	0	0	0	243.967558472825	244.167584365408
273.694	0.2	385	10	0	10	25	14	7	0	0	0	stim015_stimuli_original_vehicles_planes_3.png	J	NaN	244.559352481156	0	244.367584901804	244.567590558145
274.094	0.2	386	10	0	10	26	13	15	1	1	1	stim014_stimuli_original_vehicles_planes_2.png	Y	0	0	0	244.767581342137	244.967577977572
274.494	0.2	387	10	0	10	27	4	11	0	0	0	stim005_stimuli_original_animals_fish_1.png	R	0	0	0	245.167608746327	245.367615865602
274.894	0.2	388	10	0	10	28	15	15	0	1	0	stim016_stimuli_original_vehicles_planes_4.png	Y	0	0	0	245.567602504801	245.767603041197
275.294	0.2	389	10	0	10	29	8	4	0	0	0	stim009_stimuli_original_vehicles_boats_1.png	E	0	0	0	245.96761089185	246.167613134894
275.694	0.2	390	10	0	10	30	3	14	0	0	0	stim004_stimuli_original_animals_birds_4.png	V	0	0	0	246.367643659876	246.567643708608
276.094	0.2	391	10	0	10	31	10	0	0	0	0	stim011_stimuli_original_vehicles_boats_3.png	A	0	0	0	246.767650096444	246.967637467082
276.494	0.2	392	10	0	10	32	9	9	0	0	0	stim010_stimuli_original_vehicles_boats_2.png	L	0	0	0	247.167680182494	247.367649267486
276.894	0.2	393	10	0	10	33	12	6	0	0	0	stim013_stimuli_original_vehicles_planes_1.png	G	0	0	0	247.567671990488	247.767661799269
277.294	0.2	394	10	0	10	34	1	13	0	0	0	stim002_stimuli_original_animals_birds_2.png	U	0	0	0	247.967683790892	248.167668967275
277.694	0.2	395	10	0	10	35	0	1	0	0	0	stim001_stimuli_original_animals_birds_1.png	B	0	0	0	248.367681937933	248.567705148598
281.344	0.2	396	11	1	42	0	4	15	0	0	0	stim005_stimuli_original_animals_fish_1.png	Y	0	0	0	252.017797357345	252.217798137513
281.744	0.2	397	11	1	42	1	1	9	0	0	0	stim002_stimuli_original_animals_birds_2.png	L	0	0	0	252.417806963436	252.617808475043
282.144	0.2	398	11	1	42	2	11	14	0	0	0	stim012_stimuli_original_vehicles_boats_4.png	V	0	0	0	252.817822177138	253.017820031615
282.544	0.2	399	11	1	42	3	9	7	0	0	0	stim010_stimuli_original_vehicles_boats_2.png	J	0	0	0	253.217826906999	253.417830612918
282.944	0.2	400	11	1	42	4	14	3	0	0	0	stim015_stimuli_original_vehicles_planes_3.png	D	0	0	0	253.617824566434	253.817840950447
283.344	0.2	401	11	1	42	5	3	5	0	0	0	stim004_stimuli_original_animals_birds_4.png	F	0	0	0	254.017852945894	254.217829588917
283.744	0.2	402	11	1	42	6	7	0	0	0	0	stim008_stimuli_original_animals_fish_4.png	A	0	0	0	254.417859382462	254.617862844549
284.144	0.2	403	11	1	42	7	2	8	0	0	0	stim003_stimuli_original_animals_birds_3.png	K	0	0	0	254.817841438053	255.017856359191
284.544	0.2	404	11	1	42	8	5	10	0	0	0	stim006_stimuli_original_animals_fish_2.png	Q	0	0	0	255.217876156559	255.417878155771
284.944	0.2	405	11	1	42	9	13	13	0	0	0	stim014_stimuli_original_vehicles_planes_2.png	U	0	0	0	255.617889663554	255.8178884933
285.344	0.2	406	11	1	42	10	4	6	1	0	0	stim005_stimuli_original_animals_fish_1.png	G	0	0	0	256.017881959211	256.217899318435
285.744	0.2	407	11	1	42	11	12	11	0	0	0	stim013_stimuli_original_vehicles_planes_1.png	R	0	0	0	256.41789229674	256.617885031214
286.144	0.2	408	11	1	42	12	4	7	1	1	0	stim005_stimuli_original_animals_fish_1.png	J	0	0	0	256.817918725661	257.017902195395
286.544	0.2	409	11	1	42	13	15	4	0	0	0	stim016_stimuli_original_vehicles_planes_4.png	E	0	0	0	257.217928087921	257.417932281445
286.944	0.2	410	11	1	42	14	0	7	0	1	1	stim001_stimuli_original_animals_birds_1.png	J	0	0	0	257.617942082579	257.817964561807
287.345	0.2	411	11	1	42	15	8	2	0	0	0	stim009_stimuli_original_vehicles_boats_1.png	C	0	0	0	258.018362751405	258.21795734507
287.744	0.2	412	11	1	42	16	6	12	0	0	0	stim007_stimuli_original_animals_fish_3.png	T	NaN	258.410987369716	1	258.417960807157	258.617965732119
288.144	0.2	413	11	1	42	17	10	1	0	0	0	stim011_stimuli_original_vehicles_boats_3.png	B	0	0	0	258.817973582773	259.017972656293
288.544	0.2	414	11	1	42	18	1	10	0	0	0	stim002_stimuli_original_animals_birds_2.png	Q	0	0	0	259.217981238384	259.417985431908
288.944	0.2	415	11	1	42	19	12	6	0	0	0	stim013_stimuli_original_vehicles_planes_1.png	G	0	0	0	259.617991575913	259.817981628468
289.344	0.2	416	11	1	42	20	2	8	0	0	0	stim003_stimuli_original_animals_birds_3.png	K	0	0	0	260.018002157274	260.218010007928
289.744	0.2	417	11	1	42	21	7	0	1	0	0	stim008_stimuli_original_animals_fish_4.png	A	0	0	0	260.418015176663	260.618018151144
290.144	0.2	418	11	1	42	22	4	15	0	0	0	stim005_stimuli_original_animals_fish_1.png	Y	0	0	0	260.818024782755	261.018029220111
290.544	0.2	419	11	1	42	23	7	4	1	1	0	stim008_stimuli_original_animals_fish_4.png	E	0	0	0	261.218019760272	261.418037363328
290.944	0.2	420	11	1	42	24	11	12	0	0	0	stim012_stimuli_original_vehicles_boats_4.png	T	0	0	0	261.61802424636	261.818016980891
291.344	0.2	421	11	1	42	25	6	4	0	1	1	stim007_stimuli_original_animals_fish_3.png	E	0	0	0	262.01806408487	262.218058769824
291.744	0.2	422	11	1	42	26	13	13	0	0	0	stim014_stimuli_original_vehicles_planes_2.png	U	0	0	0	262.41804979759	262.618040093977
292.144	0.2	423	11	1	42	27	10	5	0	0	0	stim011_stimuli_original_vehicles_boats_3.png	F	NaN	263.009845025023	1	262.818075738964	263.01806481625
292.544	0.2	424	11	1	42	28	8	2	0	0	0	stim009_stimuli_original_vehicles_boats_1.png	C	0	0	0	263.218087295478	263.418516205042
292.944	0.2	425	11	1	42	29	0	7	0	0	0	stim001_stimuli_original_animals_birds_1.png	J	0	0	0	263.618085198745	263.818100363715
293.344	0.2	426	11	1	42	30	5	3	0	0	0	stim006_stimuli_original_animals_fish_2.png	D	0	0	0	264.018095048668	264.218096560275
293.744	0.2	427	11	1	42	31	3	14	0	0	0	stim004_stimuli_original_animals_birds_4.png	V	0	0	0	264.418097340444	264.618098608276
294.145	0.2	428	11	1	42	32	7	9	0	0	0	stim008_stimuli_original_animals_fish_4.png	L	0	0	0	264.818114260852	265.018117235275
294.545	0.2	429	11	1	42	33	14	11	0	0	0	stim015_stimuli_original_vehicles_planes_3.png	R	0	0	0	265.21812337928	265.418142932816
294.945	0.2	430	11	1	42	34	9	1	0	0	0	stim010_stimuli_original_vehicles_boats_2.png	B	0	0	0	265.61815273395	265.818154733221
295.345	0.2	431	11	1	42	35	15	4	0	0	0	stim016_stimuli_original_vehicles_planes_4.png	E	0	0	0	266.018163315312	266.218169946922
302.561	0.2	432	12	0	18	0	7	5	0	0	0	stim008_stimuli_original_animals_fish_4.png	F	0	0	0	273.235012058867	273.435023322818
302.961	0.2	433	12	0	18	1	1	12	0	0	0	stim002_stimuli_original_animals_birds_2.png	T	0	0	0	273.635030929698	273.835042193707
303.361	0.2	434	12	0	18	2	11	8	0	0	0	stim012_stimuli_original_vehicles_boats_4.png	K	0	0	0	274.035043461481	274.235045948357
303.761	0.2	435	12	0	18	3	4	0	0	0	0	stim005_stimuli_original_animals_fish_1.png	A	0	0	0	274.435054042842	274.635063112539
304.161	0.2	436	12	0	18	4	8	9	0	0	0	stim009_stimuli_original_vehicles_boats_1.png	L	0	0	0	274.835064380371	275.03545306134
304.561	0.2	437	12	0	18	5	13	10	0	0	0	stim014_stimuli_original_vehicles_planes_2.png	Q	0	0	0	275.235058382619	275.435055505659
304.961	0.2	438	12	0	18	6	12	15	0	0	0	stim013_stimuli_original_vehicles_planes_1.png	Y	0	0	0	275.635069695418	275.835088761291
305.361	0.2	439	12	0	18	7	15	6	1	0	0	stim016_stimuli_original_vehicles_planes_4.png	G	0	0	0	276.035081008158	276.235097148339
305.761	0.2	440	12	0	18	8	14	13	0	0	0	stim015_stimuli_original_vehicles_planes_3.png	U	0	0	0	276.435104023782	276.635092125856
306.161	0.2	441	12	0	18	9	15	3	1	0	1	stim016_stimuli_original_vehicles_planes_4.png	D	0	0	0	276.835118993651	277.035121480527
306.561	0.2	442	12	0	18	10	2	2	0	0	0	stim003_stimuli_original_animals_birds_3.png	C	NaN	277.243005838769	1	277.235126405489	277.435129379912
306.962	0.2	443	12	0	18	11	6	15	0	1	0	stim007_stimuli_original_animals_fish_3.png	Y	0	0	0	277.635155028664	277.835139473667
307.361	0.2	444	12	0	18	12	9	1	0	0	0	stim010_stimuli_original_vehicles_boats_2.png	B	0	0	0	278.03512733191	278.235127136868
307.761	0.2	445	12	0	18	13	15	15	0	1	0	stim016_stimuli_original_vehicles_planes_4.png	Y	0	0	0	278.43513498758	278.635139424878
308.161	0.2	446	12	0	18	14	10	4	0	0	0	stim011_stimuli_original_vehicles_boats_3.png	E	0	0	0	278.835151420324	279.035161709064
308.562	0.2	447	12	0	18	15	5	11	0	0	0	stim006_stimuli_original_animals_fish_2.png	R	0	0	0	279.235158100666	279.435184480855
308.962	0.2	448	12	0	18	16	0	14	0	0	0	stim001_stimuli_original_animals_birds_1.png	V	0	0	0	279.635176483949	279.835195062216
309.362	0.2	449	12	0	18	17	3	7	0	0	0	stim004_stimuli_original_animals_birds_4.png	J	0	0	0	280.035201693827	280.235226367309
309.762	0.2	450	12	0	18	18	7	3	0	0	0	stim008_stimuli_original_animals_fish_4.png	D	0	0	0	280.435200084699	280.635215981049
310.162	0.2	451	12	0	18	19	14	0	0	0	0	stim015_stimuli_original_vehicles_planes_3.png	A	0	0	0	280.835221637448	281.035229731875
310.562	0.2	452	12	0	18	20	11	5	0	0	0	stim012_stimuli_original_vehicles_boats_4.png	F	0	0	0	281.235237338755	281.435235680838
310.962	0.2	453	12	0	18	21	4	10	0	0	0	stim005_stimuli_original_animals_fish_1.png	Q	0	0	0	281.635244019155	281.835246262199
311.362	0.2	454	12	0	18	22	15	15	1	0	0	stim016_stimuli_original_vehicles_planes_4.png	Y	0	0	0	282.035257038544	282.23524148349
311.762	0.2	455	12	0	18	23	1	9	0	0	0	stim002_stimuli_original_animals_birds_2.png	L	0	0	0	282.435249090369	282.635271081992
312.162	0.2	456	12	0	18	24	15	6	1	0	1	stim016_stimuli_original_vehicles_planes_4.png	G	0	0	0	282.835259671672	283.035279469041
312.562	0.2	457	12	0	18	25	2	2	0	0	0	stim003_stimuli_original_animals_birds_3.png	C	NaN	283.427054899104	1	283.23529073305	283.435272983683
312.962	0.2	458	12	0	18	26	3	15	0	1	0	stim004_stimuli_original_animals_birds_4.png	Y	0	0	0	283.635298388661	283.835283321212
313.362	0.2	459	12	0	18	27	13	14	0	0	0	stim014_stimuli_original_vehicles_planes_2.png	V	0	0	0	284.03530677571	284.235331693024
313.762	0.2	460	12	0	18	28	6	15	0	1	0	stim007_stimuli_original_animals_fish_3.png	Y	0	0	0	284.435319307493	284.635307409568
314.162	0.2	461	12	0	18	29	15	12	0	0	0	stim016_stimuli_original_vehicles_planes_4.png	T	0	0	0	284.835331107839	285.035335301363
314.562	0.2	462	12	0	18	30	10	13	0	0	0	stim011_stimuli_original_vehicles_boats_3.png	U	NaN	285.228003269003	0	285.235320477746	285.435320038931
314.962	0.2	463	12	0	18	31	9	8	0	0	0	stim010_stimuli_original_vehicles_boats_2.png	K	0	0	0	285.635737001838	285.835323793581
315.362	0.2	464	12	0	18	32	0	4	0	0	0	stim001_stimuli_original_animals_birds_1.png	E	0	0	0	286.035329206148	286.23537289683
315.762	0.2	465	12	0	18	33	8	11	0	0	0	stim009_stimuli_original_vehicles_boats_1.png	R	0	0	0	286.435378797003	286.635344468639
316.162	0.2	466	12	0	18	34	12	1	0	0	0	stim013_stimuli_original_vehicles_planes_1.png	B	0	0	0	286.835383039259	287.035360657552
316.562	0.2	467	12	0	18	35	5	7	0	0	0	stim006_stimuli_original_animals_fish_2.png	J	0	0	0	287.235399715835	287.435399520793
319.145	0.2	468	13	1	36	0	8	2	0	0	0	stim009_stimuli_original_vehicles_boats_1.png	C	0	0	0	289.818802291062	290.018783078878
319.545	0.2	469	13	1	36	1	5	4	0	0	0	stim006_stimuli_original_animals_fish_2.png	E	0	0	0	290.218805558106	290.418818041158
319.945	0.2	470	13	1	36	2	14	14	0	0	0	stim015_stimuli_original_vehicles_planes_3.png	V	0	0	0	290.618816870847	290.81880497298
320.345	0.2	471	13	1	36	3	3	6	0	0	0	stim004_stimuli_original_animals_birds_4.png	G	0	0	0	291.018828671251	291.218832377112
320.745	0.2	472	13	1	36	4	7	10	0	0	0	stim008_stimuli_original_animals_fish_4.png	Q	0	0	0	291.418843153515	291.618841495598
321.145	0.2	473	13	1	36	5	4	12	0	0	0	stim005_stimuli_original_animals_fish_1.png	T	0	0	0	291.818849102478	292.018856709299
321.545	0.2	474	13	1	36	6	10	9	0	0	0	stim011_stimuli_original_vehicles_boats_3.png	L	0	0	0	292.218858952343	292.418863145867
321.945	0.2	475	13	1	36	7	3	0	1	0	0	stim004_stimuli_original_animals_birds_4.png	A	0	0	0	292.619129434577	292.81887762819
322.345	0.2	476	13	1	36	8	11	5	0	0	0	stim012_stimuli_original_vehicles_boats_4.png	F	0	0	0	293.018868412182	293.218887478055
322.745	0.2	477	13	1	36	9	3	7	1	0	0	stim004_stimuli_original_animals_birds_4.png	J	0	0	0	293.418906056322	293.618895377498
323.145	0.2	478	13	1	36	10	12	4	0	1	0	stim013_stimuli_original_vehicles_planes_1.png	E	0	0	0	293.818882016756	294.018888160761
323.545	0.2	479	13	1	36	11	13	15	0	0	0	stim014_stimuli_original_vehicles_planes_2.png	Y	0	0	0	294.218923561857	294.418915321119
323.945	0.2	480	13	1	36	12	6	4	0	1	1	stim007_stimuli_original_animals_fish_3.png	E	0	0	0	294.618925122253	294.818912005285
324.345	0.2	481	13	1	36	13	15	1	0	0	0	stim016_stimuli_original_vehicles_planes_4.png	B	0	0	0	295.018923025462	295.218935752346
324.745	0.2	482	13	1	36	14	2	8	0	0	0	stim003_stimuli_original_animals_birds_3.png	K	NaN	295.41155690857	1	295.418950673484	295.618948284129
325.145	0.2	483	13	1	36	15	9	11	0	0	0	stim010_stimuli_original_vehicles_boats_2.png	R	0	0	0	295.818957841489	296.018958134053
325.545	0.2	484	13	1	36	16	0	3	0	0	0	stim001_stimuli_original_animals_birds_1.png	D	0	0	0	296.218963790394	296.418971641106
325.945	0.2	485	13	1	36	17	1	13	0	0	0	stim002_stimuli_original_animals_birds_2.png	U	0	0	0	296.618982173677	296.818982710014
326.345	0.2	486	13	1	36	18	13	1	0	0	0	stim014_stimuli_original_vehicles_planes_2.png	B	0	0	0	297.018970324541	297.218977687531
326.745	0.2	487	13	1	36	19	3	0	0	0	0	stim004_stimuli_original_animals_birds_4.png	A	0	0	0	297.418999922986	297.618994120334
327.145	0.2	488	13	1	36	20	11	9	0	0	0	stim012_stimuli_original_vehicles_boats_4.png	L	0	0	0	297.819192629948	298.018992267374
327.545	0.2	489	13	1	36	21	8	2	0	0	0	stim009_stimuli_original_vehicles_boats_1.png	C	0	0	0	298.21900231234	298.419008456287
327.945	0.2	490	13	1	36	22	1	15	0	0	0	stim002_stimuli_original_animals_birds_2.png	Y	0	0	0	298.619014844124	298.819015868125
328.345	0.2	491	13	1	36	23	4	6	1	0	0	stim005_stimuli_original_animals_fish_1.png	G	0	0	0	299.019022987341	299.219028399908
328.745	0.2	492	13	1	36	24	15	13	0	0	0	stim016_stimuli_original_vehicles_planes_4.png	U	0	0	0	299.419030886784	299.619029472698
329.145	0.2	493	13	1	36	25	4	12	1	0	0	stim005_stimuli_original_animals_fish_1.png	T	0	0	0	299.819039517606	300.019038347353
329.545	0.2	494	13	1	36	26	7	3	0	1	0	stim008_stimuli_original_animals_fish_4.png	D	0	0	0	300.219056681788	300.41907672293
329.945	0.2	495	13	1	36	27	5	11	0	0	0	stim006_stimuli_original_animals_fish_2.png	R	0	0	0	300.619070432673	300.819083647162
330.345	0.2	496	13	1	36	28	0	3	0	1	1	stim001_stimuli_original_animals_birds_1.png	D	0	0	0	301.019079063495	301.219090571336
330.745	0.2	497	13	1	36	29	9	10	0	0	0	stim010_stimuli_original_vehicles_boats_2.png	Q	0	0	0	301.41909476486	301.619102859346
331.145	0.2	498	13	1	36	30	12	4	0	0	0	stim013_stimuli_original_vehicles_planes_1.png	E	NaN	301.811706948909	1	301.819112904253	302.019116854004
331.545	0.2	499	13	1	36	31	10	7	0	0	0	stim011_stimuli_original_vehicles_boats_3.png	J	0	0	0	302.219114464649	302.419113294396
331.945	0.2	500	13	1	36	32	6	3	0	0	0	stim007_stimuli_original_animals_fish_3.png	D	0	0	0	302.619117975526	302.819111441437
332.345	0.2	501	13	1	36	33	14	14	0	0	0	stim015_stimuli_original_vehicles_planes_3.png	V	0	0	0	303.019143673009	303.219596232113
332.745	0.2	502	13	1	36	34	4	5	0	0	0	stim005_stimuli_original_animals_fish_1.png	F	0	0	0	303.419158399105	303.619159179274
333.145	0.2	503	13	1	36	35	2	8	0	0	0	stim003_stimuli_original_animals_birds_3.png	K	0	0	0	303.819168492802	304.019172442553
336.012	0.2	504	14	0	19	0	12	7	0	0	0	stim013_stimuli_original_vehicles_planes_1.png	J	0	0	0	306.685913471098	306.885920834146
336.412	0.2	505	14	0	19	1	14	3	0	0	0	stim015_stimuli_original_vehicles_planes_3.png	D	0	0	0	307.085907473345	307.285906790697
336.812	0.2	506	14	0	19	2	6	5	0	0	0	stim007_stimuli_original_animals_fish_3.png	F	0	0	0	307.485912934702	307.68591273966
337.212	0.2	507	14	0	19	3	9	10	0	0	0	stim010_stimuli_original_vehicles_boats_2.png	Q	0	0	0	307.885926929361	308.085949164757
337.612	0.2	508	14	0	19	4	11	12	0	0	0	stim012_stimuli_original_vehicles_boats_4.png	T	0	0	0	308.28593726689	308.485955845157
338.012	0.2	509	14	0	19	5	0	15	0	1	0	stim001_stimuli_original_animals_birds_1.png	Y	0	0	0	308.685968815815	308.885966426518
338.412	0.2	510	14	0	19	6	2	0	0	0	0	stim003_stimuli_original_animals_birds_3.png	A	0	0	0	309.085972082859	309.285980177345
338.812	0.2	511	14	0	19	7	10	15	0	1	0	stim011_stimuli_original_vehicles_boats_3.png	Y	0	0	0	309.485983883264	309.685993196792
339.212	0.2	512	14	0	19	8	8	14	0	0	0	stim009_stimuli_original_vehicles_boats_1.png	V	0	0	0	309.885976178863	310.085969157168
339.613	0.2	513	14	0	19	9	4	4	1	0	0	stim005_stimuli_original_animals_fish_1.png	E	0	0	0	310.28643561335	310.486017285148
340.012	0.2	514	14	0	19	10	1	13	0	0	0	stim002_stimuli_original_animals_birds_2.png	U	0	0	0	310.686000998656	310.886021039798
340.412	0.2	515	14	0	19	11	4	1	1	0	1	stim005_stimuli_original_animals_fish_1.png	B	0	0	0	311.086035229499	311.286019918276
340.812	0.2	516	14	0	19	12	7	15	0	0	0	stim008_stimuli_original_animals_fish_4.png	Y	0	0	0	311.486026306113	311.68603440054
341.212	0.2	517	14	0	19	13	15	9	0	0	0	stim016_stimuli_original_vehicles_planes_4.png	L	0	0	0	311.886047127424	312.086055221909
341.612	0.2	518	14	0	19	14	13	8	0	0	0	stim014_stimuli_original_vehicles_planes_2.png	K	0	0	0	312.286058196332	312.48606092704
342.012	0.2	519	14	0	19	15	5	6	0	0	0	stim006_stimuli_original_animals_fish_2.png	G	0	0	0	312.686070971948	312.886061755999
342.412	0.2	520	14	0	19	16	3	11	0	0	0	stim004_stimuli_original_animals_birds_4.png	R	0	0	0	313.086079358996	313.286086234439
342.812	0.2	521	14	0	19	17	4	2	0	0	0	stim005_stimuli_original_animals_fish_1.png	C	0	0	0	313.486090915569	313.686093402444
343.212	0.2	522	14	0	19	18	2	4	0	0	0	stim003_stimuli_original_animals_birds_3.png	E	0	0	0	313.886075165472	314.086104715185
343.612	0.2	523	14	0	19	19	11	3	0	0	0	stim012_stimuli_original_vehicles_boats_4.png	D	0	0	0	314.286120123928	314.486101155577
344.012	0.2	524	14	0	19	20	6	5	0	0	0	stim007_stimuli_original_animals_fish_3.png	F	0	0	0	314.686105592933	314.886130022642
344.412	0.2	525	14	0	19	21	8	13	0	0	0	stim009_stimuli_original_vehicles_boats_1.png	U	0	0	0	315.086132021854	315.286134996335
344.812	0.2	526	14	0	19	22	9	15	0	0	0	stim010_stimuli_original_vehicles_boats_2.png	Y	0	0	0	315.486144066032	315.686369638541
345.212	0.2	527	14	0	19	23	15	7	0	0	0	stim016_stimuli_original_vehicles_planes_4.png	J	0	0	0	315.886142213072	316.086136898026
345.612	0.2	528	14	0	19	24	1	4	0	1	0	stim002_stimuli_original_animals_birds_2.png	E	0	0	0	316.286145723949	316.48614869843
346.012	0.2	529	14	0	19	25	13	1	0	0	0	stim014_stimuli_original_vehicles_planes_2.png	B	0	0	0	316.686162156693	316.886185854964
346.412	0.2	530	14	0	19	26	4	4	0	1	0	stim005_stimuli_original_animals_fish_1.png	E	0	0	0	317.08618639136	317.286167666782
346.812	0.2	531	14	0	19	27	14	8	0	0	0	stim015_stimuli_original_vehicles_planes_3.png	K	0	0	0	317.486203067936	317.686204823374
347.212	0.2	532	14	0	19	28	15	10	1	0	0	stim016_stimuli_original_vehicles_planes_4.png	Q	0	0	0	317.886208773067	318.086212235154
347.612	0.2	533	14	0	19	29	0	2	0	0	0	stim001_stimuli_original_animals_birds_1.png	C	0	0	0	318.286197411537	318.48620623746
348.012	0.2	534	14	0	19	30	15	0	1	0	1	stim016_stimuli_original_vehicles_planes_4.png	A	0	0	0	318.686229448125	318.886229496857
348.412	0.2	535	14	0	19	31	12	11	0	0	0	stim013_stimuli_original_vehicles_planes_1.png	R	NaN	319.278013216448	1	319.086244174221	319.286243491515
348.812	0.2	536	14	0	19	32	10	9	0	0	0	stim011_stimuli_original_vehicles_boats_3.png	L	0	0	0	319.486252317438	319.686255535693
349.212	0.2	537	14	0	19	33	5	6	0	0	0	stim006_stimuli_original_animals_fish_2.png	G	0	0	0	319.886245100701	320.086267823703
349.612	0.2	538	14	0	19	34	3	14	0	0	0	stim004_stimuli_original_animals_birds_4.png	V	0	0	0	320.286272261059	320.486272797454
350.012	0.2	539	14	0	19	35	7	12	0	0	0	stim008_stimuli_original_animals_fish_4.png	T	0	0	0	320.686283329967	320.886265580659
355.696	0.2	540	15	1	35	0	12	7	0	0	0	stim013_stimuli_original_vehicles_planes_1.png	J	0	0	0	326.369777723856	326.569773384021
356.096	0.2	541	15	1	35	1	13	9	0	0	0	stim014_stimuli_original_vehicles_planes_2.png	L	0	0	0	326.769746857579	326.969764216803
356.496	0.2	542	15	1	35	2	4	3	0	0	0	stim005_stimuli_original_animals_fish_1.png	D	0	0	0	327.169775968418	327.369796740997
356.896	0.2	543	15	1	35	3	1	15	0	0	0	stim002_stimuli_original_animals_birds_2.png	Y	0	0	0	327.569804347819	327.769809028949
357.296	0.2	544	15	1	35	4	11	13	1	0	0	stim012_stimuli_original_vehicles_boats_4.png	U	0	0	0	327.96981687966	328.169796936039
357.696	0.2	545	15	1	35	5	3	1	0	0	0	stim004_stimuli_original_animals_birds_4.png	B	0	0	0	328.369802104775	328.569796058291
358.096	0.2	546	15	1	35	6	11	4	1	0	0	stim012_stimuli_original_vehicles_boats_4.png	E	0	0	0	328.769811954699	328.969805420609
358.496	0.2	547	15	1	35	7	15	8	0	0	0	stim016_stimuli_original_vehicles_planes_4.png	K	0	0	0	329.169812783657	329.369851110503
358.896	0.2	548	15	1	35	8	2	14	0	0	0	stim003_stimuli_original_animals_birds_3.png	V	0	0	0	329.569825803046	329.769848038501
359.296	0.2	549	15	1	35	9	9	6	0	0	0	stim010_stimuli_original_vehicles_boats_2.png	G	0	0	0	329.96984321106	330.169845454104
359.696	0.2	550	15	1	35	10	11	12	0	1	0	stim012_stimuli_original_vehicles_boats_4.png	T	0	0	0	330.369846721936	330.569886023994
360.096	0.2	551	15	1	35	11	10	5	0	0	0	stim011_stimuli_original_vehicles_boats_3.png	F	0	0	0	330.769890705124	330.969876856776
360.496	0.2	552	15	1	35	12	8	12	0	1	1	stim009_stimuli_original_vehicles_boats_1.png	T	0	0	0	331.169887389347	331.369900360005
360.896	0.2	553	15	1	35	13	0	10	0	0	0	stim001_stimuli_original_animals_birds_1.png	Q	0	0	0	331.569903090654	331.769906065136
361.296	0.2	554	15	1	35	14	7	11	0	0	0	stim008_stimuli_original_animals_fish_4.png	R	0	0	0	331.969905138656	332.169907137868
361.696	0.2	555	15	1	35	15	6	12	0	0	0	stim007_stimuli_original_animals_fish_3.png	T	0	0	0	332.369931323803	332.569939662062
362.096	0.2	556	15	1	35	16	14	2	0	0	0	stim015_stimuli_original_vehicles_planes_3.png	C	0	0	0	332.769950682239	332.969928300532
362.496	0.2	557	15	1	35	17	5	0	0	0	0	stim006_stimuli_original_animals_fish_2.png	A	0	0	0	333.169953949284	333.369954729511
362.896	0.2	558	15	1	35	18	0	5	0	0	0	stim001_stimuli_original_animals_birds_1.png	F	0	0	0	333.569966481125	333.7699677489
363.296	0.2	559	15	1	35	19	2	14	0	0	0	stim003_stimuli_original_animals_birds_3.png	V	0	0	0	333.969979012909	334.169977598824
363.696	0.2	560	15	1	35	20	12	6	0	0	0	stim013_stimuli_original_vehicles_planes_1.png	G	0	0	0	334.369985205645	334.569991837256
364.096	0.2	561	15	1	35	21	11	7	0	0	0	stim012_stimuli_original_vehicles_boats_4.png	J	0	0	0	334.769999200304	334.970019241446
364.496	0.2	562	15	1	35	22	10	0	0	0	0	stim011_stimuli_original_vehicles_boats_3.png	A	0	0	0	335.170005393098	335.370010805666
364.896	0.2	563	15	1	35	23	12	8	1	0	0	stim013_stimuli_original_vehicles_planes_1.png	K	0	0	0	335.570017681108	335.770021143195
365.296	0.2	564	15	1	35	24	5	10	0	0	0	stim006_stimuli_original_animals_fish_2.png	Q	0	0	0	335.970025092887	336.170028067369
365.696	0.2	565	15	1	35	25	12	11	1	0	0	stim013_stimuli_original_vehicles_planes_1.png	R	0	0	0	336.370041281858	336.570046450594
366.096	0.2	566	15	1	35	26	6	9	0	0	0	stim007_stimuli_original_animals_fish_3.png	L	0	0	0	336.770048937469	336.970052887162
366.496	0.2	567	15	1	35	27	14	2	0	0	0	stim015_stimuli_original_vehicles_planes_3.png	C	0	0	0	337.170042208338	337.370061761816
366.896	0.2	568	15	1	35	28	8	15	0	0	0	stim009_stimuli_original_vehicles_boats_1.png	Y	0	0	0	337.570054496289	337.770048206032
367.296	0.2	569	15	1	35	29	4	11	0	1	0	stim005_stimuli_original_animals_fish_1.png	R	0	0	0	337.970071172866	338.170061713085
367.696	0.2	570	15	1	35	30	1	3	0	0	0	stim002_stimuli_original_animals_birds_2.png	D	0	0	0	338.370059567562	338.570058884856
368.096	0.2	571	15	1	35	31	13	11	0	1	1	stim014_stimuli_original_vehicles_planes_2.png	R	0	0	0	338.770105257456	338.970120178594
368.496	0.2	572	15	1	35	32	15	1	0	0	0	stim016_stimuli_original_vehicles_planes_4.png	B	NaN	339.361889025779	1	339.170113888278	339.370114912279
368.896	0.2	573	15	1	35	33	3	4	0	0	0	stim004_stimuli_original_animals_birds_4.png	E	0	0	0	339.570105208666	339.770128419332
369.296	0.2	574	15	1	35	34	9	13	0	0	0	stim010_stimuli_original_vehicles_boats_2.png	U	0	0	0	339.970134319505	340.170154360647
369.696	0.2	575	15	1	35	35	7	12	0	0	0	stim008_stimuli_original_animals_fish_4.png	T	0	0	0	340.370143194159	340.570147387683
373.863	0.2	576	16	0	16	0	13	15	0	0	0	stim014_stimuli_original_vehicles_planes_2.png	Y	0	0	0	344.536902508407	344.736922793381
374.263	0.2	577	16	0	16	1	10	2	0	0	0	stim011_stimuli_original_vehicles_boats_3.png	C	0	0	0	344.936917234503	345.136916795687
374.663	0.2	578	16	0	16	2	12	12	0	0	0	stim013_stimuli_original_vehicles_planes_1.png	T	0	0	0	345.336919526337	345.536925182736
375.063	0.2	579	16	0	16	3	9	6	0	0	0	stim010_stimuli_original_vehicles_boats_2.png	G	0	0	0	345.736932789558	345.936943809735
375.463	0.2	580	16	0	16	4	11	7	0	0	0	stim012_stimuli_original_vehicles_boats_4.png	J	0	0	0	346.136964094709	346.336966093921
375.863	0.2	581	16	0	16	5	6	11	1	0	0	stim007_stimuli_original_animals_fish_3.png	R	0	0	0	346.536975163617	346.736962778145
376.263	0.2	582	16	0	16	6	15	3	0	0	0	stim016_stimuli_original_vehicles_planes_4.png	D	0	0	0	346.936994765943	347.136991888983
376.663	0.2	583	16	0	16	7	6	14	1	0	1	stim007_stimuli_original_animals_fish_3.png	V	0	0	0	347.336979991058	347.537001495075
377.063	0.2	584	16	0	16	8	5	4	0	0	0	stim006_stimuli_original_animals_fish_2.png	E	0	0	0	347.73701032094	347.937011588772
377.463	0.2	585	16	0	16	9	1	5	0	0	0	stim002_stimuli_original_animals_birds_2.png	F	0	0	0	348.137015050859	348.336986573937
377.863	0.2	586	16	0	16	10	0	13	0	0	0	stim001_stimuli_original_animals_birds_1.png	U	0	0	0	348.536993936985	348.737034214311
378.263	0.2	587	16	0	16	11	7	9	0	0	0	stim008_stimuli_original_animals_fish_4.png	L	0	0	0	348.937020609737	349.137040894653
378.663	0.2	588	16	0	16	12	8	3	0	1	0	stim009_stimuli_original_vehicles_boats_1.png	D	0	0	0	349.337048013927	349.537056839792
379.063	0.2	589	16	0	16	13	6	10	0	0	0	stim007_stimuli_original_animals_fish_3.png	Q	0	0	0	349.737061520922	349.937049623055
379.464	0.2	590	16	0	16	14	4	3	0	1	0	stim005_stimuli_original_animals_fish_1.png	D	0	0	0	350.137522662117	350.337056547229
379.863	0.2	591	16	0	16	15	3	0	0	0	0	stim004_stimuli_original_animals_birds_4.png	A	0	0	0	350.537058790273	350.737045917136
380.263	0.2	592	16	0	16	16	2	1	0	0	0	stim003_stimuli_original_animals_birds_3.png	B	0	0	0	350.937092045904	351.137085511815
380.663	0.2	593	16	0	16	17	14	8	0	0	0	stim015_stimuli_original_vehicles_planes_3.png	K	0	0	0	351.337105065293	351.537093167426
381.063	0.2	594	16	0	16	18	8	14	0	0	0	stim009_stimuli_original_vehicles_boats_1.png	V	0	0	0	351.737107113295	351.937118377304
381.463	0.2	595	16	0	16	19	1	2	0	0	0	stim002_stimuli_original_animals_birds_2.png	C	0	0	0	352.137123058434	352.33710945386
381.863	0.2	596	16	0	16	20	0	3	0	0	0	stim001_stimuli_original_animals_birds_1.png	D	0	0	0	352.5371341274	352.737136370444
382.263	0.2	597	16	0	16	21	3	4	1	0	0	stim004_stimuli_original_animals_birds_4.png	E	0	0	0	352.937144221098	353.137146707973
382.663	0.2	598	16	0	16	22	10	6	0	0	0	stim011_stimuli_original_vehicles_boats_3.png	G	0	0	0	353.337156021502	353.537141197885
383.063	0.2	599	16	0	16	23	3	8	1	0	1	stim004_stimuli_original_animals_birds_4.png	K	0	0	0	353.737166359031	353.937172502978
383.463	0.2	600	16	0	16	24	9	7	0	0	0	stim010_stimuli_original_vehicles_boats_2.png	J	0	0	0	354.137196201249	354.337183084339
383.863	0.2	601	16	0	16	25	13	0	0	0	0	stim014_stimuli_original_vehicles_planes_2.png	A	0	0	0	354.537185083551	354.737191227556
384.263	0.2	602	16	0	16	26	5	1	0	0	0	stim006_stimuli_original_animals_fish_2.png	B	NaN	354.929871141852	1	354.937199809647	355.137200589874
384.663	0.2	603	16	0	16	27	4	5	0	0	0	stim005_stimuli_original_animals_fish_1.png	F	0	0	0	355.337201370043	355.537680748152
385.063	0.2	604	16	0	16	28	14	6	0	1	0	stim015_stimuli_original_vehicles_planes_3.png	G	0	0	0	355.73721902183	355.937225653441
385.463	0.2	605	16	0	16	29	3	15	0	0	0	stim004_stimuli_original_animals_birds_4.png	Y	0	0	0	356.137221801269	356.337224531919
385.863	0.2	606	16	0	16	30	11	6	0	1	0	stim012_stimuli_original_vehicles_boats_4.png	G	0	0	0	356.537206538778	356.737243890413
386.263	0.2	607	16	0	16	31	7	11	0	0	0	stim008_stimuli_original_animals_fish_4.png	R	0	0	0	356.937248083937	357.13723886793
386.663	0.2	608	16	0	16	32	6	9	0	0	0	stim007_stimuli_original_animals_fish_3.png	L	0	0	0	357.337247450021	357.537250180671
387.063	0.2	609	16	0	16	33	12	12	0	0	0	stim013_stimuli_original_vehicles_planes_1.png	T	0	0	0	357.737269978039	357.937274902943
387.463	0.2	610	16	0	16	34	2	10	0	0	0	stim003_stimuli_original_animals_birds_3.png	Q	0	0	0	358.137278852693	358.337282070948
387.863	0.2	611	16	0	16	35	15	13	0	0	0	stim016_stimuli_original_vehicles_planes_4.png	U	0	0	0	358.537289433996	358.737292408478
393.464	0.2	612	17	1	27	0	9	5	0	0	0	stim010_stimuli_original_vehicles_boats_2.png	F	0	0	0	364.137441717379	364.337445423298
393.864	0.2	613	17	1	27	1	6	15	0	0	0	stim007_stimuli_original_animals_fish_3.png	Y	0	0	0	364.53745303012	364.737421139842
394.264	0.2	614	17	1	27	2	14	6	0	0	0	stim015_stimuli_original_vehicles_planes_3.png	G	0	0	0	364.937457272434	365.137460490689
394.664	0.2	615	17	1	27	3	0	4	0	0	0	stim001_stimuli_original_animals_birds_1.png	E	0	0	0	365.337469560443	365.537723171001
395.064	0.2	616	17	1	27	4	13	12	0	0	0	stim014_stimuli_original_vehicles_planes_2.png	T	0	0	0	365.737481116957	365.937488236232
395.464	0.2	617	17	1	27	5	11	3	0	0	0	stim012_stimuli_original_vehicles_boats_4.png	D	0	0	0	366.137498524971	366.337492478488
395.864	0.2	618	17	1	27	6	3	8	0	0	0	stim004_stimuli_original_animals_birds_4.png	K	0	0	0	366.537565182487	366.737514031236
396.264	0.2	619	17	1	27	7	12	7	1	0	0	stim013_stimuli_original_vehicles_planes_1.png	J	0	0	0	366.937489699048	367.137519492593
396.664	0.2	620	17	1	27	8	10	10	0	0	0	stim011_stimuli_original_vehicles_boats_3.png	Q	0	0	0	367.33752295468	367.537509106332
397.064	0.2	621	17	1	27	9	12	14	1	0	0	stim013_stimuli_original_vehicles_planes_1.png	V	0	0	0	367.737532804604	367.937536510464
397.464	0.2	622	17	1	27	10	5	2	0	0	0	stim006_stimuli_original_animals_fish_2.png	C	0	0	0	368.137548018305	368.337531975645
397.864	0.2	623	17	1	27	11	4	1	0	0	0	stim005_stimuli_original_animals_fish_1.png	B	0	0	0	368.537556892959	368.737560355046
398.264	0.2	624	17	1	27	12	1	7	0	1	0	stim002_stimuli_original_animals_birds_2.png	J	0	0	0	368.937568449532	369.137568010658
398.664	0.2	625	17	1	27	13	15	0	0	0	0	stim016_stimuli_original_vehicles_planes_4.png	A	0	0	0	369.337578055623	369.53757956723
399.064	0.2	626	17	1	27	14	7	7	0	1	1	stim008_stimuli_original_animals_fish_4.png	J	0	0	0	369.737565718882	369.93757868954
399.464	0.2	627	17	1	27	15	2	13	0	0	0	stim003_stimuli_original_animals_birds_3.png	U	0	0	0	370.137595073495	370.337578299397
399.864	0.2	628	17	1	27	16	8	9	0	0	0	stim009_stimuli_original_vehicles_boats_1.png	L	0	0	0	370.537610287196	370.737611555029
400.264	0.2	629	17	1	27	17	12	11	0	0	0	stim013_stimuli_original_vehicles_planes_1.png	R	0	0	0	370.937602095248	371.137618235429
400.664	0.2	630	17	1	27	18	11	12	0	0	0	stim012_stimuli_original_vehicles_boats_4.png	T	0	0	0	371.337629255606	371.537634180568
401.064	0.2	631	17	1	27	19	9	8	0	0	0	stim010_stimuli_original_vehicles_boats_2.png	K	0	0	0	371.73763617978	371.937645249476
401.464	0.2	632	17	1	27	20	13	2	0	0	0	stim014_stimuli_original_vehicles_planes_2.png	C	0	0	0	372.137624086812	372.337642908911
401.864	0.2	633	17	1	27	21	7	7	1	0	0	stim008_stimuli_original_animals_fish_4.png	J	0	0	0	372.537662462448	372.737664217886
402.264	0.2	634	17	1	27	22	0	15	0	0	0	stim001_stimuli_original_animals_birds_1.png	Y	0	0	0	372.937672312313	373.137676018232
402.664	0.2	635	17	1	27	23	7	1	1	0	0	stim008_stimuli_original_animals_fish_4.png	B	0	0	0	373.337682406069	373.537684649113
403.064	0.2	636	17	1	27	24	1	4	0	0	0	stim002_stimuli_original_animals_birds_2.png	E	0	0	0	373.737693474977	373.937678163755
403.464	0.2	637	17	1	27	25	2	5	0	0	0	stim003_stimuli_original_animals_birds_3.png	F	0	0	0	374.137713564909	374.337706786988
403.864	0.2	638	17	1	27	26	14	12	0	1	0	stim015_stimuli_original_vehicles_planes_3.png	T	0	0	0	374.537713418598	374.737736629264
404.264	0.2	639	17	1	27	27	10	10	0	0	0	stim011_stimuli_original_vehicles_boats_3.png	Q	0	0	0	374.937725706608	375.137693084893
404.664	0.2	640	17	1	27	28	7	12	0	1	1	stim008_stimuli_original_animals_fish_4.png	T	0	0	0	375.337741895579	375.537738043349
405.064	0.2	641	17	1	27	29	8	3	0	0	0	stim009_stimuli_original_vehicles_boats_1.png	D	0	0	0	375.737745650229	375.937749599922
405.464	0.2	642	17	1	27	30	3	11	0	0	0	stim004_stimuli_original_animals_birds_4.png	R	0	0	0	376.138153153297	376.337765788892
405.864	0.2	643	17	1	27	31	12	13	0	0	0	stim013_stimuli_original_vehicles_planes_1.png	U	0	0	0	376.53775242815	376.737770031148
406.264	0.2	644	17	1	27	32	4	0	0	0	0	stim005_stimuli_original_animals_fish_1.png	A	0	0	0	376.937768129457	377.137779149634
406.664	0.2	645	17	1	27	33	6	14	0	0	0	stim007_stimuli_original_animals_fish_3.png	V	0	0	0	377.337791632686	377.537789487164
407.064	0.2	646	17	1	27	34	15	6	0	0	0	stim016_stimuli_original_vehicles_planes_4.png	G	0	0	0	377.737783196848	377.937800312298
407.464	0.2	647	17	1	27	35	5	9	0	0	0	stim006_stimuli_original_animals_fish_2.png	L	0	0	0	378.137813526788	378.337811868871
410.247	0.2	648	18	0	1	0	7	2	0	0	0	stim008_stimuli_original_animals_fish_4.png	C	0	0	0	380.921212493617	381.121219612833
410.647	0.2	649	18	0	1	1	9	8	0	0	0	stim010_stimuli_original_vehicles_boats_2.png	K	0	0	0	381.321212591138	381.521204838005
411.047	0.2	650	18	0	1	2	12	1	0	0	0	stim013_stimuli_original_vehicles_planes_1.png	B	0	0	0	381.721210494346	381.921222733625
411.447	0.2	651	18	0	1	3	13	5	0	0	0	stim014_stimuli_original_vehicles_planes_2.png	F	0	0	0	382.121264473768	382.321252819675
411.847	0.2	652	18	0	1	4	14	14	0	0	0	stim015_stimuli_original_vehicles_planes_3.png	V	0	0	0	382.521251161757	382.721249016235
412.247	0.2	653	18	0	1	5	5	11	0	0	0	stim006_stimuli_original_animals_fish_2.png	R	0	0	0	382.921273933549	383.121258622326
412.648	0.2	654	18	0	1	6	12	4	1	0	0	stim013_stimuli_original_vehicles_planes_1.png	E	0	0	0	383.321707768075	383.521294316044
413.047	0.2	655	18	0	1	7	4	3	0	0	0	stim005_stimuli_original_animals_fish_1.png	D	0	0	0	383.721297290525	383.921299045964
413.447	0.2	656	18	0	1	8	12	9	1	0	1	stim013_stimuli_original_vehicles_planes_1.png	L	0	0	0	384.121312016621	384.321336690104
413.847	0.2	657	18	0	1	9	6	13	0	0	0	stim007_stimuli_original_animals_fish_3.png	U	0	0	0	384.521315039834	384.721321427671
414.247	0.2	658	18	0	1	10	11	10	0	0	0	stim012_stimuli_original_vehicles_boats_4.png	Q	0	0	0	384.921327327844	385.121331277536
414.647	0.2	659	18	0	1	11	15	8	0	1	0	stim016_stimuli_original_vehicles_planes_4.png	K	0	0	0	385.321324012009	385.521339664585
415.047	0.2	660	18	0	1	12	0	6	0	0	0	stim001_stimuli_original_animals_birds_1.png	G	0	0	0	385.721348002902	385.921371944947
415.447	0.2	661	18	0	1	13	1	8	0	1	0	stim002_stimuli_original_animals_birds_2.png	K	0	0	0	386.121365898522	386.321376187261
415.847	0.2	662	18	0	1	14	10	15	0	0	0	stim011_stimuli_original_vehicles_boats_3.png	Y	0	0	0	386.521353317949	386.721343614336
416.247	0.2	663	18	0	1	15	8	7	0	0	0	stim009_stimuli_original_vehicles_boats_1.png	J	0	0	0	386.921381209744	387.121363704209
416.647	0.2	664	18	0	1	16	2	12	0	0	0	stim003_stimuli_original_animals_birds_3.png	T	0	0	0	387.321389109129	387.521399641701
417.047	0.2	665	18	0	1	17	3	0	0	0	0	stim004_stimuli_original_animals_birds_4.png	A	0	0	0	387.721401153365	387.921383160225
417.447	0.2	666	18	0	1	18	0	3	0	0	0	stim001_stimuli_original_animals_birds_1.png	D	0	0	0	388.121415391797	388.321415196755
417.847	0.2	667	18	0	1	19	12	2	0	0	0	stim013_stimuli_original_vehicles_planes_1.png	C	0	0	0	388.521425729326	388.721663492266
418.247	0.2	668	18	0	1	20	7	8	0	0	0	stim008_stimuli_original_animals_fish_4.png	K	0	0	0	388.92142241355	389.121441723255
418.647	0.2	669	18	0	1	21	15	10	0	0	0	stim016_stimuli_original_vehicles_planes_4.png	Q	0	0	0	389.321451768163	389.521445234073
419.047	0.2	670	18	0	1	22	8	1	1	0	0	stim009_stimuli_original_vehicles_boats_1.png	B	0	0	0	389.72145625425	389.921457522083
419.447	0.2	671	18	0	1	23	6	0	0	0	0	stim007_stimuli_original_animals_fish_3.png	A	0	0	0	390.121468298486	390.321469566261
419.847	0.2	672	18	0	1	24	8	15	1	0	1	stim009_stimuli_original_vehicles_boats_1.png	Y	0	0	0	390.52148083027	390.721481854271
420.247	0.2	673	18	0	1	25	10	11	0	0	0	stim011_stimuli_original_vehicles_boats_3.png	R	0	0	0	390.92146191065	391.121457570815
420.647	0.2	674	18	0	1	26	13	6	0	0	0	stim014_stimuli_original_vehicles_planes_2.png	G	0	0	0	391.32147322339	391.521479367395
421.047	0.2	675	18	0	1	27	9	12	0	1	0	stim010_stimuli_original_vehicles_boats_2.png	T	0	0	0	391.721511355194	391.921512135421
421.447	0.2	676	18	0	1	28	3	4	0	0	0	stim004_stimuli_original_animals_birds_4.png	E	0	0	0	392.121520229848	392.321522472892
421.848	0.2	677	18	0	1	29	4	12	0	1	0	stim005_stimuli_original_animals_fish_1.png	T	0	0	0	392.52153276169	392.721539880906
422.248	0.2	678	18	0	1	30	11	5	0	0	0	stim012_stimuli_original_vehicles_boats_4.png	F	0	0	0	392.921540417301	393.121542172739
422.648	0.2	679	18	0	1	31	14	14	0	0	0	stim015_stimuli_original_vehicles_planes_3.png	V	0	0	0	393.321549535787	393.52153471217
423.048	0.2	680	18	0	1	32	5	13	0	0	0	stim006_stimuli_original_animals_fish_2.png	U	0	0	0	393.721562067571	393.921559678216
423.448	0.2	681	18	0	1	33	1	12	0	0	0	stim002_stimuli_original_animals_birds_2.png	T	0	0	0	394.121572161268	394.32157147862
423.848	0.2	682	18	0	1	34	8	9	0	0	0	stim009_stimuli_original_vehicles_boats_1.png	L	0	0	0	394.521577134961	394.7215657247
424.248	0.2	683	18	0	1	35	2	7	0	0	0	stim003_stimuli_original_animals_birds_3.png	J	0	0	0	394.921588935365	395.121590934577
428.564	0.2	684	19	1	30	0	4	5	0	0	0	stim005_stimuli_original_animals_fish_1.png	F	0	0	0	399.238358587143	399.438355710183
428.964	0.2	685	19	1	30	1	1	11	0	0	0	stim002_stimuli_original_animals_birds_2.png	R	0	0	0	399.638391111337	399.838373118197
429.364	0.2	686	19	1	30	2	8	15	0	0	0	stim009_stimuli_original_vehicles_boats_1.png	Y	0	0	0	400.038415833609	400.238399303285
429.764	0.2	687	19	1	30	3	3	1	0	0	0	stim004_stimuli_original_animals_birds_4.png	B	0	0	0	400.438391306379	400.638410616084
430.164	0.2	688	19	1	30	4	12	6	0	0	0	stim013_stimuli_original_vehicles_planes_1.png	G	0	0	0	400.838418710569	401.038425098348
430.564	0.2	689	19	1	30	5	2	14	1	0	0	stim003_stimuli_original_animals_birds_3.png	V	0	0	0	401.23843197379	401.438450552057
430.964	0.2	690	19	1	30	6	13	4	0	0	0	stim014_stimuli_original_vehicles_planes_2.png	E	0	0	0	401.638422318909	401.838445529575
431.364	0.2	691	19	1	30	7	2	7	1	0	0	stim003_stimuli_original_animals_birds_3.png	J	0	0	0	402.038439970755	402.238448065182
431.764	0.2	692	19	1	30	8	9	10	0	0	0	stim010_stimuli_original_vehicles_boats_2.png	Q	0	0	0	402.43844982062	402.638459134148
432.164	0.2	693	19	1	30	9	11	14	0	1	0	stim012_stimuli_original_vehicles_boats_4.png	V	0	0	0	402.838459670544	403.038478004979
432.564	0.2	694	19	1	30	10	7	13	0	0	0	stim008_stimuli_original_animals_fish_4.png	U	0	0	0	403.238482686167	403.438483710168
432.964	0.2	695	19	1	30	11	2	14	0	1	1	stim003_stimuli_original_animals_birds_3.png	V	0	0	0	403.638490341778	403.838495510514
433.364	0.2	696	19	1	30	12	5	0	0	0	0	stim006_stimuli_original_animals_fish_2.png	A	NaN	404.230254849128	1	404.038486538338	404.238513406133
433.764	0.2	697	19	1	30	13	15	12	0	0	0	stim016_stimuli_original_vehicles_planes_4.png	T	0	0	0	404.438496632036	404.63851594174
434.164	0.2	698	19	1	30	14	6	9	0	0	0	stim007_stimuli_original_animals_fish_3.png	L	0	0	0	404.838529400004	405.038528961188
434.564	0.2	699	19	1	30	15	0	2	0	0	0	stim001_stimuli_original_animals_birds_1.png	C	0	0	0	405.238539006095	405.438538811053
434.964	0.2	700	19	1	30	16	10	8	0	0	0	stim011_stimuli_original_vehicles_boats_3.png	K	0	0	0	405.638518867432	405.838521841913
435.364	0.2	701	19	1	30	17	14	3	0	0	0	stim015_stimuli_original_vehicles_planes_3.png	D	0	0	0	406.038538957364	406.238558023237
435.764	0.2	702	19	1	30	18	3	14	0	0	0	stim004_stimuli_original_animals_birds_4.png	V	0	0	0	406.438567336765	406.63858664647
436.165	0.2	703	19	1	30	19	8	10	0	0	0	stim009_stimuli_original_vehicles_boats_1.png	Q	0	0	0	406.838567434286	407.03856211924
436.564	0.2	704	19	1	30	20	2	0	0	0	0	stim003_stimuli_original_animals_birds_3.png	A	0	0	0	407.238565337553	407.438576601562
436.965	0.2	705	19	1	30	21	9	6	0	0	0	stim010_stimuli_original_vehicles_boats_2.png	G	0	0	0	407.638602494088	407.838605224737
437.365	0.2	706	19	1	30	22	12	15	0	0	0	stim013_stimuli_original_vehicles_planes_1.png	Y	0	0	0	408.039064610493	408.238623364188
437.765	0.2	707	19	1	30	23	0	5	0	0	0	stim001_stimuli_original_animals_birds_1.png	F	0	0	0	408.438601957692	408.6385915227
438.165	0.2	708	19	1	30	24	14	2	1	0	0	stim015_stimuli_original_vehicles_planes_3.png	C	0	0	0	408.83860376192	409.038635505887
438.565	0.2	709	19	1	30	25	13	7	0	0	0	stim014_stimuli_original_vehicles_planes_2.png	J	0	0	0	409.238640430849	409.438646331022
438.965	0.2	710	19	1	30	26	14	11	1	0	0	stim015_stimuli_original_vehicles_planes_3.png	R	0	0	0	409.638652231195	409.83865374286
439.365	0.2	711	19	1	30	27	10	9	0	0	0	stim011_stimuli_original_vehicles_boats_3.png	L	0	0	0	410.038652328774	410.238666762249
439.765	0.2	712	19	1	30	28	7	2	0	1	0	stim008_stimuli_original_animals_fish_4.png	C	0	0	0	410.438673393859	410.638662227429
440.165	0.2	713	19	1	30	29	4	13	0	0	0	stim005_stimuli_original_animals_fish_1.png	U	0	0	0	410.838684462826	411.038669151603
440.565	0.2	714	19	1	30	30	14	2	0	1	1	stim015_stimuli_original_vehicles_planes_3.png	C	0	0	0	411.238697726047	411.438697531004
440.965	0.2	715	19	1	30	31	6	12	0	0	0	stim007_stimuli_original_animals_fish_3.png	T	0	0	0	411.638705869322	411.838706649491
441.365	0.2	716	19	1	30	32	1	3	0	0	0	stim002_stimuli_original_animals_birds_2.png	D	0	0	0	412.038715475413	412.238719668938
441.765	0.2	717	19	1	30	33	15	8	0	0	0	stim016_stimuli_original_vehicles_planes_4.png	K	0	0	0	412.438726788154	412.638729762635
442.165	0.2	718	19	1	30	34	11	1	0	0	0	stim012_stimuli_original_vehicles_boats_4.png	B	0	0	0	412.838736394246	413.038741075376
442.565	0.2	719	19	1	30	35	5	4	0	0	0	stim006_stimuli_original_animals_fish_2.png	E	0	0	0	413.238751607947	413.439169789897
445.198	0.2	720	20	0	39	0	15	13	0	0	0	stim016_stimuli_original_vehicles_planes_4.png	U	0	0	0	415.872155353427	416.072150526044
445.598	0.2	721	20	0	39	1	6	10	0	0	0	stim007_stimuli_original_animals_fish_3.png	Q	0	0	0	416.272154719569	416.472159156867
445.998	0.2	722	20	0	39	2	10	11	0	0	0	stim011_stimuli_original_vehicles_boats_3.png	R	0	0	0	416.672169201833	416.872173882963
446.398	0.2	723	20	0	39	3	1	9	0	0	0	stim002_stimuli_original_animals_birds_2.png	L	0	0	0	417.072161985037	417.27218202618
446.798	0.2	724	20	0	39	4	4	15	0	0	0	stim005_stimuli_original_animals_fish_1.png	Y	0	0	0	417.472169153043	417.672189194185
447.198	0.2	725	20	0	39	5	7	1	0	1	0	stim008_stimuli_original_animals_fish_4.png	B	0	0	0	417.872182416264	418.072201726027
447.598	0.2	726	20	0	39	6	3	2	0	0	0	stim004_stimuli_original_animals_birds_4.png	C	0	0	0	418.272212502372	418.472211332119
447.998	0.2	727	20	0	39	7	12	1	0	1	0	stim013_stimuli_original_vehicles_planes_1.png	B	0	0	0	418.672218451335	418.872208991495
448.398	0.2	728	20	0	39	8	0	5	0	0	0	stim001_stimuli_original_animals_birds_1.png	F	0	0	0	419.072230983118	419.272258826182
448.798	0.2	729	20	0	39	9	9	7	0	0	0	stim010_stimuli_original_vehicles_boats_2.png	J	0	0	0	419.472223766381	419.672226740862
449.198	0.2	730	20	0	39	10	15	6	1	0	0	stim016_stimuli_original_vehicles_planes_4.png	G	0	0	0	419.872251414345	420.072254388826
449.598	0.2	731	20	0	39	11	8	8	0	0	0	stim009_stimuli_original_vehicles_boats_1.png	K	0	0	0	420.272263214749	420.472693099524
449.998	0.2	732	20	0	39	12	15	1	1	0	1	stim016_stimuli_original_vehicles_planes_4.png	B	0	0	0	420.672275990364	420.872263117228
450.398	0.2	733	20	0	39	13	2	14	0	0	0	stim003_stimuli_original_animals_birds_3.png	V	0	0	0	421.072283889807	421.272270529007
450.798	0.2	734	20	0	39	14	14	12	0	0	0	stim015_stimuli_original_vehicles_planes_3.png	T	0	0	0	421.472296665364	421.672295738943
451.198	0.2	735	20	0	39	15	11	3	0	0	0	stim012_stimuli_original_vehicles_boats_4.png	D	0	0	0	421.872310416249	422.072304369765
451.598	0.2	736	20	0	39	16	13	0	0	0	0	stim014_stimuli_original_vehicles_planes_2.png	A	0	0	0	422.272308807122	422.472310318728
451.998	0.2	737	20	0	39	17	5	4	0	0	0	stim006_stimuli_original_animals_fish_2.png	E	0	0	0	422.672322314174	422.872328458121
452.398	0.2	738	20	0	39	18	4	5	0	0	0	stim005_stimuli_original_animals_fish_1.png	F	0	0	0	423.072347524052	423.272324410907
452.798	0.2	739	20	0	39	19	0	13	0	0	0	stim001_stimuli_original_animals_birds_1.png	U	0	0	0	423.472345183487	423.672355228395
453.198	0.2	740	20	0	39	20	3	11	0	0	0	stim004_stimuli_original_animals_birds_4.png	R	0	0	0	423.872358446708	424.072361177357
453.598	0.2	741	20	0	39	21	12	14	0	0	0	stim013_stimuli_original_vehicles_planes_1.png	V	0	0	0	424.272366346151	424.472379560582
453.998	0.2	742	20	0	39	22	14	2	0	0	0	stim015_stimuli_original_vehicles_planes_3.png	C	0	0	0	424.672380828415	424.872387947631
454.398	0.2	743	20	0	39	23	1	15	0	1	0	stim002_stimuli_original_animals_birds_2.png	Y	0	0	0	425.072389946901	425.272394628031
454.798	0.2	744	20	0	39	24	8	8	0	0	0	stim009_stimuli_original_vehicles_boats_1.png	K	0	0	0	425.472401259642	425.672402039811
455.198	0.2	745	20	0	39	25	6	15	0	1	0	stim007_stimuli_original_animals_fish_3.png	Y	0	0	0	425.872425006703	426.072397992597
455.598	0.2	746	20	0	39	26	7	9	0	0	0	stim008_stimuli_original_animals_fish_4.png	L	0	0	0	426.272421203263	426.472428322479
455.998	0.2	747	20	0	39	27	5	0	0	0	0	stim006_stimuli_original_animals_fish_2.png	A	0	0	0	426.672442512179	426.872442804743
456.398	0.2	748	20	0	39	28	1	12	1	0	0	stim002_stimuli_original_animals_birds_2.png	T	0	0	0	427.07242481166	427.272430955607
456.798	0.2	749	20	0	39	29	2	3	0	0	0	stim003_stimuli_original_animals_birds_3.png	D	0	0	0	427.472455141542	427.672442268406
457.198	0.2	750	20	0	39	30	1	7	1	0	1	stim002_stimuli_original_animals_birds_2.png	J	0	0	0	427.872465722845	428.072465771635
457.598	0.2	751	20	0	39	31	15	4	0	0	0	stim016_stimuli_original_vehicles_planes_4.png	E	0	0	0	428.272472403245	428.472474158683
457.998	0.2	752	20	0	39	32	9	1	0	0	0	stim010_stimuli_original_vehicles_boats_2.png	B	0	0	0	428.672485422634	428.872488884779
458.398	0.2	753	20	0	39	33	11	10	0	0	0	stim012_stimuli_original_vehicles_boats_4.png	Q	0	0	0	429.07250209921	429.272483130859
458.798	0.2	754	20	0	39	34	10	6	0	0	0	stim011_stimuli_original_vehicles_boats_3.png	G	0	0	0	429.472510242485	429.672519555956
459.198	0.2	755	20	0	39	35	13	15	0	0	0	stim014_stimuli_original_vehicles_planes_2.png	Y	0	0	0	429.872518873308	430.07250307448
463.848	0.2	756	21	1	32	0	5	8	0	0	0	stim006_stimuli_original_animals_fish_2.png	K	0	0	0	434.522629660321	434.722648970026
464.249	0.2	757	21	1	32	1	10	15	0	0	0	stim011_stimuli_original_vehicles_boats_3.png	Y	0	0	0	434.922667548293	435.122664671333
464.649	0.2	758	21	1	32	2	2	9	0	0	0	stim003_stimuli_original_animals_birds_3.png	L	0	0	0	435.322669352521	435.522668669815
465.049	0.2	759	21	1	32	3	0	0	0	0	0	stim001_stimuli_original_animals_birds_1.png	A	0	0	0	435.722663110995	435.922678275907
465.449	0.2	760	21	1	32	4	13	14	0	0	0	stim014_stimuli_original_vehicles_planes_2.png	V	0	0	0	436.122689783748	436.322693977272
465.849	0.2	761	21	1	32	5	14	7	0	0	0	stim015_stimuli_original_vehicles_planes_3.png	J	0	0	0	436.522700365051	436.722700657614
466.249	0.2	762	21	1	32	6	1	3	0	0	0	stim002_stimuli_original_animals_birds_2.png	D	0	0	0	436.922708264494	437.122703437053
466.649	0.2	763	21	1	32	7	3	6	0	0	0	stim004_stimuli_original_animals_birds_4.png	G	0	0	0	437.322716407711	437.52272474597
467.049	0.2	764	21	1	32	8	12	5	0	0	0	stim013_stimuli_original_vehicles_planes_1.png	F	0	0	0	437.722714554751	437.922732157807
467.449	0.2	765	21	1	32	9	11	13	0	0	0	stim012_stimuli_original_vehicles_boats_4.png	U	0	0	0	438.122745859902	438.32272494107
467.849	0.2	766	21	1	32	10	14	4	1	0	0	stim015_stimuli_original_vehicles_planes_3.png	E	0	0	0	438.522730109806	438.722749663342
468.249	0.2	767	21	1	32	11	4	6	0	1	0	stim005_stimuli_original_animals_fish_1.png	G	0	0	0	438.922736790206	439.12273805798
468.649	0.2	768	21	1	32	12	14	2	1	0	0	stim015_stimuli_original_vehicles_planes_3.png	C	0	0	0	439.32277394674	439.522777896433
469.049	0.2	769	21	1	32	13	6	6	0	1	1	stim007_stimuli_original_animals_fish_3.png	G	0	0	0	439.722770874738	439.922786771145
469.449	0.2	770	21	1	32	14	7	10	0	0	0	stim008_stimuli_original_animals_fish_4.png	Q	0	0	0	440.123035993136	440.32280783623
469.849	0.2	771	21	1	32	15	9	1	0	0	0	stim010_stimuli_original_vehicles_boats_2.png	B	NaN	440.714582534856	1	440.522804471664	440.722790135711
470.249	0.2	772	21	1	32	16	8	11	0	0	0	stim009_stimuli_original_vehicles_boats_1.png	R	0	0	0	440.922816028236	441.12281924655
470.649	0.2	773	21	1	32	17	15	12	0	0	0	stim016_stimuli_original_vehicles_planes_4.png	T	0	0	0	441.322829047684	441.522829584079
471.049	0.2	774	21	1	32	18	12	15	0	0	0	stim013_stimuli_original_vehicles_planes_1.png	Y	0	0	0	441.722838409944	441.922845772991
471.449	0.2	775	21	1	32	19	11	8	0	0	0	stim012_stimuli_original_vehicles_boats_4.png	K	0	0	0	442.122840214171	442.322842700989
471.849	0.2	776	21	1	32	20	1	9	0	0	0	stim002_stimuli_original_animals_birds_2.png	L	0	0	0	442.522851770686	442.7228503566
472.249	0.2	777	21	1	32	21	10	7	0	0	0	stim011_stimuli_original_vehicles_boats_3.png	J	0	0	0	442.922868934926	443.122873372224
472.649	0.2	778	21	1	32	22	6	6	1	0	0	stim007_stimuli_original_animals_fish_3.png	G	0	0	0	443.322881222877	443.522887854488
473.049	0.2	779	21	1	32	23	2	14	0	1	0	stim003_stimuli_original_animals_birds_3.png	V	0	0	0	443.72287400614	443.922894047282
473.449	0.2	780	21	1	32	24	6	4	1	0	0	stim007_stimuli_original_animals_fish_3.png	E	0	0	0	444.122903116979	444.322911211464
473.849	0.2	781	21	1	32	25	4	14	0	1	1	stim005_stimuli_original_animals_fish_1.png	V	0	0	0	444.522914917383	444.722915941384
474.249	0.2	782	21	1	32	26	13	11	0	0	0	stim014_stimuli_original_vehicles_planes_2.png	R	0	0	0	444.922924279643	445.122925547475
474.649	0.2	783	21	1	32	27	5	12	0	0	0	stim006_stimuli_original_animals_fish_2.png	T	0	0	0	445.322935104778	445.523384981963
475.049	0.2	784	21	1	32	28	6	3	0	0	0	stim007_stimuli_original_animals_fish_3.png	D	0	0	0	445.722946905182	445.922946710081
475.449	0.2	785	21	1	32	29	3	1	0	0	0	stim004_stimuli_original_animals_birds_4.png	B	0	0	0	446.122956755047	446.322957779048
475.849	0.2	786	21	1	32	30	7	14	0	0	0	stim008_stimuli_original_animals_fish_4.png	V	0	0	0	446.522966361139	446.722949830873
476.249	0.2	787	21	1	32	31	14	13	0	0	0	stim015_stimuli_original_vehicles_planes_3.png	U	0	0	0	446.922955487273	447.122982111236
476.649	0.2	788	21	1	32	32	0	0	0	0	0	stim001_stimuli_original_animals_birds_1.png	A	0	0	0	447.322985573323	447.522990498284
477.049	0.2	789	21	1	32	33	9	2	0	0	0	stim010_stimuli_original_vehicles_boats_2.png	C	0	0	0	447.722982257546	447.923001811025
477.449	0.2	790	21	1	32	34	15	10	0	0	0	stim016_stimuli_original_vehicles_planes_4.png	Q	0	0	0	448.123008442635	448.32301458664
477.849	0.2	791	21	1	32	35	8	5	0	0	0	stim009_stimuli_original_vehicles_boats_1.png	F	0	0	0	448.523022437294	448.723024924169
480.782	0.2	792	22	0	12	0	8	4	0	0	0	stim009_stimuli_original_vehicles_boats_1.png	E	0	0	0	451.456444663578	451.656431546609
481.182	0.2	793	22	0	12	1	6	0	0	0	0	stim007_stimuli_original_animals_fish_3.png	A	0	0	0	451.856424281083	452.056443590787
481.582	0.2	794	22	0	12	2	9	6	0	0	0	stim010_stimuli_original_vehicles_boats_2.png	G	0	0	0	452.256439494784	452.45645514736
481.982	0.2	795	22	0	12	3	0	7	0	0	0	stim001_stimuli_original_animals_birds_1.png	J	0	0	0	452.656462998013	452.85689800285
482.382	0.2	796	22	0	12	4	12	13	0	0	0	stim013_stimuli_original_vehicles_planes_1.png	U	0	0	0	453.056459682237	453.256485330989
482.782	0.2	797	22	0	12	5	5	2	0	1	0	stim006_stimuli_original_animals_fish_2.png	C	0	0	0	453.456481234985	453.656485184678
483.182	0.2	798	22	0	12	6	1	14	0	0	0	stim002_stimuli_original_animals_birds_2.png	V	0	0	0	453.856496936292	454.05648357555
483.582	0.2	799	22	0	12	7	4	2	0	1	0	stim005_stimuli_original_animals_fish_1.png	C	0	0	0	454.256511174783	454.456508054049
483.982	0.2	800	22	0	12	8	11	3	0	0	0	stim012_stimuli_original_vehicles_boats_4.png	D	0	0	0	454.656515173265	454.856517172477
484.382	0.2	801	22	0	12	9	5	10	1	0	0	stim006_stimuli_original_animals_fish_2.png	Q	0	0	0	455.056528680318	455.256529704318
