onset	duration	eventnumber	sequencenumber	condition	streamnumber	stimnumber	objectstimnumber	letterstimnumber	objecttarget	lettertarget	is2back	objectstim	letterstim	response	rt	correct	time_stimon	time_stimoff
76.146	0.2	0	0	0	38	0	10	2	0	0	0	stim011_stimuli_original_vehicles_boats_3.png	C	0	0	0	54.1658289374318	54.3658104566857
76.547	0.2	1	0	0	38	1	11	1	0	0	0	stim012_stimuli_original_vehicles_boats_4.png	B	0	0	0	54.5667489279294	54.7658444436966
76.946	0.2	2	0	0	38	2	13	4	0	0	0	stim014_stimuli_original_vehicles_planes_2.png	E	0	0	0	54.9658262067242	55.1658479545731
77.346	0.2	3	0	0	38	3	2	9	0	0	0	stim003_stimuli_original_animals_birds_3.png	L	0	0	0	55.3658438585699	55.5658578044968
77.746	0.2	4	0	0	38	4	8	11	0	0	0	stim009_stimuli_original_vehicles_boats_1.png	R	0	0	0	55.7658763827058	55.9658520505764
78.146	0.2	5	0	0	38	5	5	13	0	1	0	stim006_stimuli_original_animals_fish_2.png	U	0	0	0	56.1658764802851	56.3658784795552
78.546	0.2	6	0	0	38	6	3	14	0	0	0	stim004_stimuli_original_animals_birds_4.png	V	0	0	0	56.5658885244047	56.7658922303235
78.946	0.2	7	0	0	38	7	9	13	0	1	0	stim010_stimuli_original_vehicles_boats_2.png	U	0	0	0	56.9659005686408	57.1658991544973
79.346	0.2	8	0	0	38	8	7	15	0	0	0	stim008_stimuli_original_animals_fish_4.png	Y	0	0	0	57.3659113937756	57.5659160749055
79.746	0.2	9	0	0	38	9	1	0	0	0	0	stim002_stimuli_original_animals_birds_2.png	A	0	0	0	57.7659241693327	57.9659159285948
80.146	0.2	10	0	0	38	10	9	13	1	0	0	stim010_stimuli_original_vehicles_boats_2.png	U	0	0	0	58.165912564029	58.3659152947366
80.546	0.2	11	0	0	38	11	14	6	0	0	0	stim015_stimuli_original_vehicles_planes_3.png	G	0	0	0	58.5659394806717	58.7659514760599
80.946	0.2	12	0	0	38	12	9	3	1	0	1	stim010_stimuli_original_vehicles_boats_2.png	D	0	0	0	58.9659532314399	59.1659542554989
81.346	0.2	13	0	0	38	13	12	8	0	0	0	stim013_stimuli_original_vehicles_planes_1.png	K	0	0	0	59.3659591804026	59.5659692253685
81.746	0.2	14	0	0	38	14	0	7	0	0	0	stim001_stimuli_original_animals_birds_1.png	J	0	0	0	59.7659753693733	59.9659732237924
82.146	0.2	15	0	0	38	15	4	5	0	0	0	stim005_stimuli_original_animals_fish_1.png	F	0	0	0	60.1659808306722	60.3659835613798
82.546	0.2	16	0	0	38	16	15	12	0	0	0	stim016_stimuli_original_vehicles_planes_4.png	T	0	0	0	60.5659745892044	60.7659951179521
82.946	0.2	17	0	0	38	17	6	10	0	0	0	stim007_stimuli_original_animals_fish_3.png	Q	0	0	0	60.9660022371681	61.166004480212
83.346	0.2	18	0	0	38	18	10	6	0	0	0	stim011_stimuli_original_vehicles_boats_3.png	G	0	0	0	61.3660008718725	61.5660204254091
83.746	0.2	19	0	0	38	19	12	15	0	0	0	stim013_stimuli_original_vehicles_planes_1.png	Y	0	0	0	61.7660243751016	61.9660300314426
84.146	0.2	20	0	0	38	20	5	4	0	0	0	stim006_stimuli_original_animals_fish_2.png	E	0	0	0	62.1660373944324	62.3660206204513
84.546	0.2	21	0	0	38	21	7	0	0	0	0	stim008_stimuli_original_animals_fish_4.png	A	0	0	0	62.5660435872851	62.7660343712196
84.946	0.2	22	0	0	38	22	8	12	0	0	0	stim009_stimuli_original_vehicles_boats_1.png	T	0	0	0	62.9660371019272	63.1660415392835
85.346	0.2	23	0	0	38	23	3	9	0	1	0	stim004_stimuli_original_animals_birds_4.png	L	0	0	0	63.366063287016	63.566079671029
85.746	0.2	24	0	0	38	24	6	14	0	0	0	stim007_stimuli_original_animals_fish_3.png	V	NaN	63.7586308539612	0	63.7660611902829	63.9660829381319
86.146	0.2	25	0	0	38	25	13	9	0	1	0	stim014_stimuli_original_vehicles_planes_2.png	L	0	0	0	64.1660881068092	64.3660908375168
86.546	0.2	26	0	0	38	26	0	1	0	0	0	stim001_stimuli_original_animals_birds_1.png	B	0	0	0	64.5660945434356	64.766099956003
86.946	0.2	27	0	0	38	27	15	7	0	0	0	stim016_stimuli_original_vehicles_planes_4.png	J	0	0	0	64.9660856199916	65.1660766478162
87.346	0.2	28	0	0	38	28	13	9	1	0	0	stim014_stimuli_original_vehicles_planes_2.png	L	0	0	0	65.3660825480474	65.5660864977399
87.746	0.2	29	0	0	38	29	14	3	0	0	0	stim015_stimuli_original_vehicles_planes_3.png	D	0	0	0	65.7661333578872	65.9661370638059
88.146	0.2	30	0	0	38	30	13	5	1	0	1	stim014_stimuli_original_vehicles_planes_2.png	F	0	0	0	66.1661410134984	66.3661439879797
88.546	0.2	31	0	0	38	31	11	8	0	0	0	stim012_stimuli_original_vehicles_boats_4.png	K	NaN	66.7579189303797	1	66.5661567148054	66.7661526188022
88.946	0.2	32	0	0	38	32	9	2	0	0	0	stim010_stimuli_original_vehicles_boats_2.png	C	0	0	0	66.9661594942445	67.1661578363273
89.346	0.2	33	0	0	38	33	4	13	0	0	0	stim005_stimuli_original_animals_fish_1.png	U	0	0	0	67.3661912870593	67.5661693928996
89.746	0.2	34	0	0	38	34	1	11	0	0	0	stim002_stimuli_original_animals_birds_2.png	R	0	0	0	67.7661774874432	67.9661824123468
90.146	0.2	35	0	0	38	35	2	10	0	0	0	stim003_stimuli_original_animals_birds_3.png	Q	0	0	0	68.1661909944378	68.3661895802943
93.629	0.2	36	1	1	41	0	2	2	0	0	0	stim003_stimuli_original_animals_birds_3.png	C	0	0	0	71.6496175604407	71.8496178530622
94.029	0.2	37	1	1	41	1	7	9	0	0	0	stim008_stimuli_original_animals_fish_4.png	L	0	0	0	72.0496200961061	72.2496316039469
94.429	0.2	38	1	1	41	2	3	15	0	0	0	stim004_stimuli_original_animals_birds_4.png	Y	0	0	0	72.4496353098657	72.6498523489572
94.829	0.2	39	1	1	41	3	6	13	0	0	0	stim007_stimuli_original_animals_fish_3.png	U	0	0	0	72.8496480854228	73.0496466713957
95.229	0.2	40	1	1	41	4	13	10	0	0	0	stim014_stimuli_original_vehicles_planes_2.png	Q	0	0	0	73.2496562286979	73.4496631041402
95.629	0.2	41	1	1	41	5	15	14	1	1	0	stim016_stimuli_original_vehicles_planes_4.png	V	0	0	0	73.6496668099426	73.8496673463378
96.029	0.2	42	1	1	41	6	0	7	0	0	0	stim001_stimuli_original_animals_birds_1.png	J	0	0	0	74.0496737342328	74.2496820724336
96.429	0.2	43	1	1	41	7	15	14	1	1	1	stim016_stimuli_original_vehicles_planes_4.png	V	0	0	0	74.4496869974537	74.6496902157087
96.829	0.2	44	1	1	41	8	1	12	0	0	0	stim002_stimuli_original_animals_birds_2.png	T	0	0	0	74.849698554026	75.0497037227033
97.229	0.2	45	1	1	41	9	12	6	0	0	0	stim013_stimuli_original_vehicles_planes_1.png	G	0	0	0	75.2497115733568	75.4497106469935
97.629	0.2	46	1	1	41	10	11	0	0	0	0	stim012_stimuli_original_vehicles_boats_4.png	A	0	0	0	75.6496692481451	75.8497236663243
98.029	0.2	47	1	1	41	11	14	8	0	0	0	stim015_stimuli_original_vehicles_planes_3.png	K	0	0	0	76.0497256655945	76.2497332724743
98.429	0.2	48	1	1	41	12	10	14	0	0	0	stim011_stimuli_original_vehicles_boats_3.png	V	0	0	0	76.449744536425	76.6497440976091
98.829	0.2	49	1	1	41	13	4	5	0	0	0	stim005_stimuli_original_animals_fish_1.png	F	0	0	0	76.8497475596378	77.049753459869
99.229	0.2	50	1	1	41	14	15	1	0	0	0	stim016_stimuli_original_vehicles_planes_4.png	B	0	0	0	77.2497610667488	77.4497628221288
99.629	0.2	51	1	1	41	15	9	11	0	0	0	stim010_stimuli_original_vehicles_boats_2.png	R	0	0	0	77.6497733547585	77.8497775482247
100.029	0.2	52	1	1	41	16	5	4	0	0	0	stim006_stimuli_original_animals_fish_2.png	E	0	0	0	78.0497736961115	78.2497952000704
100.429	0.2	53	1	1	41	17	8	3	0	0	0	stim009_stimuli_original_vehicles_boats_1.png	D	0	0	0	78.4498003688641	78.6498021242442
100.829	0.2	54	1	1	41	18	3	8	0	0	0	stim004_stimuli_original_animals_birds_4.png	K	0	0	0	78.8497921768576	79.0497988084098
101.229	0.2	55	1	1	41	19	4	5	0	0	0	stim005_stimuli_original_animals_fish_1.png	F	0	0	0	79.2498193371575	79.4498218240915
101.629	0.2	56	1	1	41	20	11	9	0	0	0	stim012_stimuli_original_vehicles_boats_4.png	L	0	0	0	79.6498321128311	79.8498331367737
102.029	0.2	57	1	1	41	21	1	15	0	0	0	stim002_stimuli_original_animals_birds_2.png	Y	0	0	0	80.0498422065284	80.2498283581808
102.43	0.2	58	1	1	41	22	5	4	0	0	0	stim006_stimuli_original_animals_fish_2.png	E	0	0	0	80.4498703421559	80.6498557622544
102.83	0.2	59	1	1	41	23	14	10	0	0	0	stim015_stimuli_original_vehicles_planes_3.png	Q	0	0	0	80.8498611749383	81.0498485455755
103.23	0.2	60	1	1	41	24	8	14	0	0	0	stim009_stimuli_original_vehicles_boats_1.png	V	0	0	0	81.2498556647915	81.4498752183281
103.63	0.2	61	1	1	41	25	0	11	0	0	0	stim001_stimuli_original_animals_birds_1.png	R	0	0	0	81.6498840441927	81.8499057920417
104.03	0.2	62	1	1	41	26	6	12	0	0	0	stim007_stimuli_original_animals_fish_3.png	T	0	0	0	82.0498975513037	82.2498788266676
104.43	0.2	63	1	1	41	27	12	1	0	0	0	stim013_stimuli_original_vehicles_planes_1.png	B	0	0	0	82.4499071573373	82.6499057431938
104.83	0.2	64	1	1	41	28	14	15	1	1	0	stim015_stimuli_original_vehicles_planes_3.png	Y	0	0	0	82.8499133500736	83.0499194940785
105.23	0.2	65	1	1	41	29	7	0	0	0	0	stim008_stimuli_original_animals_fish_4.png	A	0	0	0	83.2500741180265	83.4499332449632
105.63	0.2	66	1	1	41	30	14	15	1	1	1	stim015_stimuli_original_vehicles_planes_3.png	Y	0	0	0	83.6499425584916	83.849924809183
106.03	0.2	67	1	1	41	31	10	13	0	0	0	stim011_stimuli_original_vehicles_boats_3.png	U	0	0	0	84.0499297340866	84.249948312412
106.43	0.2	68	1	1	41	32	13	6	0	0	0	stim014_stimuli_original_vehicles_planes_2.png	G	0	0	0	84.4499573820503	84.6499598689843
106.83	0.2	69	1	1	41	33	15	3	0	0	0	stim016_stimuli_original_vehicles_planes_4.png	D	0	0	0	84.8499660129892	85.0499702064553
107.23	0.2	70	1	1	41	34	9	7	0	0	0	stim010_stimuli_original_vehicles_boats_2.png	J	0	0	0	85.2499605028424	85.4499803001527
107.63	0.2	71	1	1	41	35	2	2	0	0	0	stim003_stimuli_original_animals_birds_3.png	C	0	0	0	85.6499898574548	85.8499867367791
113.996	0.2	72	2	0	4	0	2	0	0	0	0	stim003_stimuli_original_animals_birds_3.png	A	0	0	0	92.0168143176707	92.2168185111368
114.396	0.2	73	2	0	4	1	14	4	0	0	0	stim015_stimuli_original_vehicles_planes_3.png	E	0	0	0	92.4168222170556	92.6168290924979
114.796	0.2	74	2	0	4	2	10	9	0	0	0	stim011_stimuli_original_vehicles_boats_3.png	L	0	0	0	92.8168415755499	93.0168399176328
115.196	0.2	75	2	0	4	3	7	8	0	0	0	stim008_stimuli_original_animals_fish_4.png	K	0	0	0	93.2168445987627	93.4168512304313
115.596	0.2	76	2	0	4	4	3	15	0	0	0	stim004_stimuli_original_animals_birds_4.png	Y	0	0	0	93.616863957257	93.8168701012619
115.996	0.2	77	2	0	4	5	15	12	0	0	0	stim016_stimuli_original_vehicles_planes_4.png	T	0	0	0	94.0168716128683	94.216867516865
116.397	0.2	78	2	0	4	6	9	6	0	0	0	stim010_stimuli_original_vehicles_boats_2.png	G	0	0	0	94.4168809751282	94.6168815115234
116.797	0.2	79	2	0	4	7	6	5	0	0	0	stim007_stimuli_original_animals_fish_3.png	F	0	0	0	94.8168893621769	95.0168906300096
117.197	0.2	80	2	0	4	8	5	13	0	0	0	stim006_stimuli_original_animals_fish_2.png	U	0	0	0	95.2168996996479	95.4169004799332
117.597	0.2	81	2	0	4	9	8	11	0	0	0	stim009_stimuli_original_vehicles_boats_1.png	R	0	0	0	95.6169136943063	95.8169108174043
117.997	0.2	82	2	0	4	10	15	1	1	1	0	stim016_stimuli_original_vehicles_planes_4.png	B	0	0	0	96.016921350034	96.2169213987654
118.397	0.2	83	2	0	4	11	1	10	0	0	0	stim002_stimuli_original_animals_birds_2.png	Q	0	0	0	96.4169377827784	96.6169327114476
118.797	0.2	84	2	0	4	12	15	1	1	1	1	stim016_stimuli_original_vehicles_planes_4.png	B	0	0	0	96.8169434878509	97.0169425613713
119.197	0.2	85	2	0	4	13	13	2	0	0	0	stim014_stimuli_original_vehicles_planes_2.png	C	NaN	97.40871652856	1	97.2169496805873	97.4169514360838
119.597	0.2	86	2	0	4	14	4	3	0	0	0	stim005_stimuli_original_animals_fish_1.png	D	0	0	0	97.6169605057221	97.8169749393128
119.997	0.2	87	2	0	4	15	11	1	0	0	0	stim012_stimuli_original_vehicles_boats_4.png	B	0	0	0	98.0169696242083	98.2169745492283
120.397	0.2	88	2	0	4	16	12	7	0	0	0	stim013_stimuli_original_vehicles_planes_1.png	J	0	0	0	98.4169787426945	98.6169922009576
120.797	0.2	89	2	0	4	17	0	14	0	0	0	stim001_stimuli_original_animals_birds_1.png	V	0	0	0	98.8169703069143	99.0169925423106
121.197	0.2	90	2	0	4	18	14	0	0	0	0	stim015_stimuli_original_vehicles_planes_3.png	A	0	0	0	99.2172446900513	99.4169855694054
121.597	0.2	91	2	0	4	19	7	12	0	0	0	stim008_stimuli_original_animals_fish_4.png	T	0	0	0	99.6169868372381	99.8170234573772
121.997	0.2	92	2	0	4	20	1	11	0	0	0	stim002_stimuli_original_animals_birds_2.png	R	NaN	100.009541725973	0	100.017027163296	100.217030137777
122.397	0.2	93	2	0	4	21	3	4	0	0	0	stim004_stimuli_original_animals_birds_4.png	E	0	0	0	100.417037256993	100.617045839084
122.797	0.2	94	2	0	4	22	2	13	0	0	0	stim003_stimuli_original_animals_birds_3.png	U	0	0	0	100.817033209722	101.017036427977
123.197	0.2	95	2	0	4	23	1	15	1	1	0	stim002_stimuli_original_animals_birds_2.png	Y	0	0	0	101.217057200614	101.417061150307
123.597	0.2	96	2	0	4	24	10	1	0	0	0	stim011_stimuli_original_vehicles_boats_3.png	B	0	0	0	101.617072170484	101.817072706879
123.997	0.2	97	2	0	4	25	1	15	1	1	1	stim002_stimuli_original_animals_birds_2.png	Y	0	0	0	102.017079338548	102.217067684396
124.397	0.2	98	2	0	4	26	11	8	0	0	0	stim012_stimuli_original_vehicles_boats_4.png	K	0	0	0	102.417074559839	102.617092894274
124.797	0.2	99	2	0	4	27	13	5	0	0	0	stim014_stimuli_original_vehicles_planes_2.png	F	0	0	0	102.817082946887	103.017087871791
125.197	0.2	100	2	0	4	28	5	6	0	0	0	stim006_stimuli_original_animals_fish_2.png	G	0	0	0	103.217116446234	103.417112350231
125.597	0.2	101	2	0	4	29	6	9	0	0	0	stim007_stimuli_original_animals_fish_3.png	L	0	0	0	103.617123370524	103.81713877921
125.997	0.2	102	2	0	4	30	12	15	0	0	0	stim013_stimuli_original_vehicles_planes_1.png	Y	0	0	0	104.017132488894	104.217118640547
126.397	0.2	103	2	0	4	31	15	3	0	0	0	stim016_stimuli_original_vehicles_planes_4.png	D	0	0	0	104.417142582708	104.617608795059
126.797	0.2	104	2	0	4	32	8	7	0	0	0	stim009_stimuli_original_vehicles_boats_1.png	J	0	0	0	104.817156577366	105.017139559379
127.197	0.2	105	2	0	4	33	9	10	0	0	0	stim010_stimuli_original_vehicles_boats_2.png	Q	0	0	0	105.217164232978	105.417170376983
127.597	0.2	106	2	0	4	34	4	14	0	0	0	stim005_stimuli_original_animals_fish_1.png	V	0	0	0	105.617180178058	105.817179983016
127.997	0.2	107	2	0	4	35	0	2	0	0	0	stim001_stimuli_original_animals_birds_1.png	C	0	0	0	106.017184664146	106.217189345276
130.93	0.2	108	3	1	32	0	5	0	0	0	0	stim006_stimuli_original_animals_fish_2.png	A	0	0	0	108.950594456168	109.150593529688
131.33	0.2	109	3	1	32	1	11	10	0	0	0	stim012_stimuli_original_vehicles_boats_4.png	Q	0	0	0	109.35060576885	109.550606549135
131.73	0.2	110	3	1	32	2	10	4	0	0	0	stim011_stimuli_original_vehicles_boats_3.png	E	0	0	0	109.750628784532	109.950618349481
132.13	0.2	111	3	1	32	3	15	6	0	0	0	stim016_stimuli_original_vehicles_planes_4.png	G	0	0	0	110.15062181151	110.350624542218
132.53	0.2	112	3	1	32	4	14	7	0	0	0	stim015_stimuli_original_vehicles_planes_3.png	J	0	0	0	110.550642389106	110.750636586454
132.93	0.2	113	3	1	32	5	0	8	1	1	0	stim001_stimuli_original_animals_birds_1.png	K	0	0	0	110.950644437107	111.150648630573
133.33	0.2	114	3	1	32	6	9	14	0	0	0	stim010_stimuli_original_vehicles_boats_2.png	V	0	0	0	111.350654043141	111.550660430919
133.731	0.2	115	3	1	32	7	0	8	1	1	1	stim001_stimuli_original_animals_birds_1.png	K	0	0	0	111.751158094732	111.950661747484
134.13	0.2	116	3	1	32	8	6	5	0	0	0	stim007_stimuli_original_animals_fish_3.png	F	0	0	0	112.150685933419	112.350691345986
134.53	0.2	117	3	1	32	9	2	3	0	0	0	stim003_stimuli_original_animals_birds_3.png	D	0	0	0	112.550696271006	112.750699733035
134.93	0.2	118	3	1	32	10	13	8	0	0	0	stim014_stimuli_original_vehicles_planes_2.png	K	0	0	0	112.950703438953	113.150691541028
135.33	0.2	119	3	1	32	11	12	9	0	0	0	stim013_stimuli_original_vehicles_planes_1.png	L	0	0	0	113.350713288877	113.550724552828
135.73	0.2	120	3	1	32	12	1	2	0	0	0	stim002_stimuli_original_animals_birds_2.png	C	0	0	0	113.750724601559	113.950708315126
136.13	0.2	121	3	1	32	13	4	15	0	0	0	stim005_stimuli_original_animals_fish_1.png	Y	0	0	0	114.150740546756	114.35074571555
136.53	0.2	122	3	1	32	14	0	12	0	0	0	stim001_stimuli_original_animals_birds_1.png	T	0	0	0	114.550746251945	114.750748007325
136.93	0.2	123	3	1	32	15	7	1	0	0	0	stim008_stimuli_original_animals_fish_4.png	B	0	0	0	114.950736597064	115.150754443835
137.33	0.2	124	3	1	32	16	8	11	0	0	0	stim009_stimuli_original_vehicles_boats_1.png	R	0	0	0	115.35074839741	115.550753566204
137.73	0.2	125	3	1	32	17	3	13	0	0	0	stim004_stimuli_original_animals_birds_4.png	U	0	0	0	115.750787504483	115.950781214167
138.13	0.2	126	3	1	32	18	13	3	0	0	0	stim014_stimuli_original_vehicles_planes_2.png	D	0	0	0	116.150785407634	116.350789601216
138.53	0.2	127	3	1	32	19	11	8	0	0	0	stim012_stimuli_original_vehicles_boats_4.png	K	0	0	0	116.550801596604	116.750801157788
138.93	0.2	128	3	1	32	20	1	7	0	0	0	stim002_stimuli_original_animals_birds_2.png	J	0	0	0	116.950808277004	117.151014832314
139.33	0.2	129	3	1	32	21	12	0	0	0	0	stim013_stimuli_original_vehicles_planes_1.png	A	0	0	0	117.350817639264	117.550806472776
139.73	0.2	130	3	1	32	22	15	4	0	0	0	stim016_stimuli_original_vehicles_planes_4.png	E	0	0	0	117.750827732962	117.950822905521
140.13	0.2	131	3	1	32	23	2	1	0	0	0	stim003_stimuli_original_animals_birds_3.png	B	0	0	0	118.150826123892	118.350834949757
140.53	0.2	132	3	1	32	24	9	12	0	0	0	stim010_stimuli_original_vehicles_boats_2.png	T	0	0	0	118.550839874661	118.750844555907
140.93	0.2	133	3	1	32	25	8	13	0	0	0	stim009_stimuli_original_vehicles_boats_1.png	U	0	0	0	118.950851918897	119.150851480081
141.33	0.2	134	3	1	32	26	3	2	0	0	0	stim004_stimuli_original_animals_birds_4.png	C	0	0	0	119.350858355523	119.550867668935
141.73	0.2	135	3	1	32	27	5	6	0	0	0	stim006_stimuli_original_animals_fish_2.png	G	0	0	0	119.750871374854	119.950873374124
142.13	0.2	136	3	1	32	28	8	0	1	1	0	stim009_stimuli_original_vehicles_boats_1.png	A	0	0	0	120.150879518129	120.35088249261
142.53	0.2	137	3	1	32	29	14	9	0	0	0	stim015_stimuli_original_vehicles_planes_3.png	L	NaN	120.543481949833	0	120.550894244225	120.750896243495
142.93	0.2	138	3	1	32	30	8	0	1	1	1	stim009_stimuli_original_vehicles_boats_1.png	A	0	0	0	120.950900680735	121.150905605755
143.33	0.2	139	3	1	32	31	7	14	0	0	0	stim008_stimuli_original_animals_fish_4.png	V	0	0	0	121.350910530658	121.550916187116
143.73	0.2	140	3	1	32	32	6	15	0	0	0	stim007_stimuli_original_animals_fish_3.png	Y	0	0	0	121.750935009099	121.950940177892
144.13	0.2	141	3	1	32	33	4	10	0	0	0	stim005_stimuli_original_animals_fish_1.png	Q	0	0	0	122.150932912366	122.350936374511
144.53	0.2	142	3	1	32	34	10	11	0	0	0	stim011_stimuli_original_vehicles_boats_3.png	R	0	0	0	122.550948857563	122.750953051029
144.93	0.2	143	3	1	32	35	0	5	0	0	0	stim001_stimuli_original_animals_birds_1.png	F	0	0	0	122.950966753182	123.150957293343
149.581	0.2	144	4	0	7	0	1	8	0	0	0	stim002_stimuli_original_animals_birds_2.png	K	0	0	0	127.601082903915	127.80108929181
149.981	0.2	145	4	0	7	1	12	14	0	0	0	stim013_stimuli_original_vehicles_planes_1.png	V	0	0	0	128.001095679589	128.201097434969
150.381	0.2	146	4	0	7	2	10	12	0	0	0	stim011_stimuli_original_vehicles_boats_3.png	T	0	0	0	128.401101628551	128.601100458181
150.781	0.2	147	4	0	7	3	2	4	0	0	0	stim003_stimuli_original_animals_birds_3.png	E	0	0	0	128.801120499382	129.001125424285
151.181	0.2	148	4	0	7	4	8	3	0	0	0	stim009_stimuli_original_vehicles_boats_1.png	D	0	0	0	129.201128886431	129.401113331434
151.581	0.2	149	4	0	7	5	7	11	0	0	0	stim008_stimuli_original_animals_fish_4.png	R	0	0	0	129.601121669635	129.801142198383
151.981	0.2	150	4	0	7	6	13	1	0	0	0	stim014_stimuli_original_vehicles_planes_2.png	B	0	0	0	130.001157607185	130.201150829322
152.381	0.2	151	4	0	7	7	2	2	1	0	0	stim003_stimuli_original_animals_birds_3.png	C	0	0	0	130.401158679975	130.601162142004
152.781	0.2	152	4	0	7	8	0	5	0	0	0	stim001_stimuli_original_animals_birds_1.png	F	0	0	0	130.801168286009	131.001178087201
153.181	0.2	153	4	0	7	9	2	6	1	0	1	stim003_stimuli_original_animals_birds_3.png	G	0	0	0	131.201179354917	131.401193300844
153.581	0.2	154	4	0	7	10	15	15	0	0	0	stim016_stimuli_original_vehicles_planes_4.png	Y	0	0	0	131.601180427708	131.801183645963
153.981	0.2	155	4	0	7	11	9	12	0	1	0	stim010_stimuli_original_vehicles_boats_2.png	T	0	0	0	132.001202468062	132.201205198769
154.381	0.2	156	4	0	7	12	3	9	0	0	0	stim004_stimuli_original_animals_birds_4.png	L	0	0	0	132.401212561759	132.601214073482
154.781	0.2	157	4	0	7	13	11	12	0	1	0	stim012_stimuli_original_vehicles_boats_4.png	T	0	0	0	132.801207783166	133.00122514239
155.181	0.2	158	4	0	7	14	6	0	0	0	0	stim007_stimuli_original_animals_fish_3.png	A	0	0	0	133.201234699693	133.401236211299
155.581	0.2	159	4	0	7	15	4	10	0	0	0	stim005_stimuli_original_animals_fish_1.png	Q	0	0	0	133.601227970561	133.8012441108
155.981	0.2	160	4	0	7	16	14	13	0	0	0	stim015_stimuli_original_vehicles_planes_3.png	U	0	0	0	134.001252936665	134.201259812107
156.381	0.2	161	4	0	7	17	5	7	0	0	0	stim006_stimuli_original_animals_fish_2.png	J	0	0	0	134.401249133283	134.601251863874
156.781	0.2	162	4	0	7	18	7	5	0	0	0	stim008_stimuli_original_animals_fish_4.png	F	0	0	0	134.801274830708	135.001265614759
157.181	0.2	163	4	0	7	19	13	14	0	0	0	stim014_stimuli_original_vehicles_planes_2.png	V	0	0	0	135.201283461647	135.401285460801
157.581	0.2	164	4	0	7	20	10	4	0	0	0	stim011_stimuli_original_vehicles_boats_3.png	E	0	0	0	135.601279658149	135.801282388857
157.981	0.2	165	4	0	7	21	0	6	0	0	0	stim001_stimuli_original_animals_birds_1.png	G	0	0	0	136.001289995736	136.201311255922
158.381	0.2	166	4	0	7	22	12	11	1	0	0	stim013_stimuli_original_vehicles_planes_1.png	R	0	0	0	136.401320813224	136.601319155307
158.781	0.2	167	4	0	7	23	9	3	0	0	0	stim010_stimuli_original_vehicles_boats_2.png	D	0	0	0	136.801595196361	137.001336319488
159.181	0.2	168	4	0	7	24	12	9	1	0	1	stim013_stimuli_original_vehicles_planes_1.png	L	0	0	0	137.201338562532	137.401342268451
159.581	0.2	169	4	0	7	25	15	15	0	0	0	stim016_stimuli_original_vehicles_planes_4.png	Y	NaN	137.593903935165	1	137.601352313417	137.801336514531
159.981	0.2	170	4	0	7	26	6	2	0	1	0	stim007_stimuli_original_animals_fish_3.png	C	0	0	0	138.001342170872	138.201363431057
160.381	0.2	171	4	0	7	27	5	0	0	0	0	stim006_stimuli_original_animals_fish_2.png	A	0	0	0	138.401371525601	138.601374012418
160.781	0.2	172	4	0	7	28	2	2	0	1	0	stim003_stimuli_original_animals_birds_3.png	C	0	0	0	138.801381375524	139.001383862342
161.181	0.2	173	4	0	7	29	1	13	0	0	0	stim002_stimuli_original_animals_birds_2.png	U	0	0	0	139.201395126292	139.401377864648
161.581	0.2	174	4	0	7	30	11	7	0	0	0	stim012_stimuli_original_vehicles_boats_4.png	J	0	0	0	139.601400587708	139.801392590743
161.981	0.2	175	4	0	7	31	3	8	0	0	0	stim004_stimuli_original_animals_birds_4.png	K	0	0	0	140.001413363265	140.201414874871
162.381	0.2	176	4	0	7	32	4	2	0	0	0	stim005_stimuli_original_animals_fish_1.png	C	0	0	0	140.401423213189	140.601424237131
162.781	0.2	177	4	0	7	33	12	10	0	0	0	stim013_stimuli_original_vehicles_planes_1.png	Q	0	0	0	140.80144037737	141.00143554993
163.181	0.2	178	4	0	7	34	14	12	0	0	0	stim015_stimuli_original_vehicles_planes_3.png	T	0	0	0	141.201443888247	141.401446618838
163.581	0.2	179	4	0	7	35	8	1	0	0	0	stim009_stimuli_original_vehicles_boats_1.png	B	0	0	0	141.601437646663	141.801458175411
166.614	0.2	180	5	1	43	0	2	11	0	0	0	stim003_stimuli_original_animals_birds_3.png	R	0	0	0	144.634874647832	144.834870551829
167.014	0.2	181	5	1	43	1	10	6	0	0	0	stim011_stimuli_original_vehicles_boats_3.png	G	0	0	0	145.034880109131	145.234878938878
167.414	0.2	182	5	1	43	2	9	9	0	0	0	stim010_stimuli_original_vehicles_boats_2.png	L	0	0	0	145.434871917125	145.634890982998
167.814	0.2	183	5	1	43	3	15	4	0	0	0	stim016_stimuli_original_vehicles_planes_4.png	E	0	0	0	145.834903709823	146.03489985771
168.214	0.2	184	5	1	43	4	5	12	0	0	0	stim006_stimuli_original_animals_fish_2.png	T	0	0	0	146.234898443567	146.434912877157
168.614	0.2	185	5	1	43	5	8	1	0	0	0	stim009_stimuli_original_vehicles_boats_1.png	B	0	0	0	146.634923409671	146.834932966973
169.014	0.2	186	5	1	43	6	11	7	0	0	0	stim012_stimuli_original_vehicles_boats_4.png	J	0	0	0	147.034913754789	147.234915997833
169.414	0.2	187	5	1	43	7	0	2	0	0	0	stim001_stimuli_original_animals_birds_1.png	C	0	0	0	147.434939939994	147.634943645913
169.814	0.2	188	5	1	43	8	13	3	0	0	0	stim014_stimuli_original_vehicles_planes_2.png	D	0	0	0	147.834951496567	148.034936672891
170.214	0.2	189	5	1	43	9	4	0	0	0	0	stim005_stimuli_original_animals_fish_1.png	A	0	0	0	148.234950862592	148.43496870948
170.614	0.2	190	5	1	43	10	11	8	1	0	0	stim012_stimuli_original_vehicles_boats_4.png	K	0	0	0	148.634972902946	148.83497514599
171.014	0.2	191	5	1	43	11	3	13	0	0	0	stim004_stimuli_original_animals_birds_4.png	U	0	0	0	149.034981777659	149.234985971125
171.414	0.2	192	5	1	43	12	11	15	1	1	0	stim012_stimuli_original_vehicles_boats_4.png	Y	0	0	0	149.434994797106	149.635207447689
171.814	0.2	193	5	1	43	13	14	5	0	0	0	stim015_stimuli_original_vehicles_planes_3.png	F	0	0	0	149.835001233616	150.035008109058
172.214	0.2	194	5	1	43	14	7	15	0	1	1	stim008_stimuli_original_animals_fish_4.png	Y	0	0	0	150.234998893109	150.435016739881
172.614	0.2	195	5	1	43	15	12	10	0	0	0	stim013_stimuli_original_vehicles_planes_1.png	Q	0	0	0	150.635027760174	150.835035610828
173.014	0.2	196	5	1	43	16	1	14	0	0	0	stim002_stimuli_original_animals_birds_2.png	V	0	0	0	151.035041023395	151.235022542649
173.414	0.2	197	5	1	43	17	6	15	0	0	0	stim007_stimuli_original_animals_fish_3.png	Y	0	0	0	151.435044534155	151.635049215402
173.814	0.2	198	5	1	43	18	15	6	0	0	0	stim016_stimuli_original_vehicles_planes_4.png	G	0	0	0	151.835023420281	152.035062234732
174.214	0.2	199	5	1	43	19	14	1	0	0	0	stim015_stimuli_original_vehicles_planes_3.png	B	0	0	0	152.235065940651	152.43507232843
174.614	0.2	200	5	1	43	20	10	12	0	0	0	stim011_stimuli_original_vehicles_boats_3.png	T	0	0	0	152.635077740997	152.835066330736
175.014	0.2	201	5	1	43	21	15	7	1	0	0	stim016_stimuli_original_vehicles_planes_4.png	J	0	0	0	153.035070768092	153.235094954027
175.415	0.2	202	5	1	43	22	5	14	0	0	0	stim006_stimuli_original_animals_fish_2.png	V	0	0	0	153.435098903719	153.635104803951
175.815	0.2	203	5	1	43	23	15	11	1	1	0	stim016_stimuli_original_vehicles_planes_4.png	R	0	0	0	153.835111679276	154.035115385195
176.215	0.2	204	5	1	43	24	13	3	0	0	0	stim014_stimuli_original_vehicles_planes_2.png	D	0	0	0	154.235119578778	154.435127185658
176.615	0.2	205	5	1	43	25	8	11	0	1	1	stim009_stimuli_original_vehicles_boats_1.png	R	0	0	0	154.635132841999	154.835108022206
177.015	0.2	206	5	1	43	26	0	4	0	0	0	stim001_stimuli_original_animals_birds_1.png	E	NaN	155.02772064507	1	155.03512830718	155.235120310215
177.415	0.2	207	5	1	43	27	3	13	0	0	0	stim004_stimuli_original_animals_birds_4.png	U	0	0	0	155.435125966556	155.635129672475
177.815	0.2	208	5	1	43	28	2	0	0	0	0	stim003_stimuli_original_animals_birds_3.png	A	0	0	0	155.835162635543	156.035147568095
178.215	0.2	209	5	1	43	29	7	11	0	0	0	stim008_stimuli_original_animals_fish_4.png	R	0	0	0	156.235171266366	156.435174240847
178.615	0.2	210	5	1	43	30	1	8	0	0	0	stim002_stimuli_original_animals_birds_2.png	K	0	0	0	156.635168194305	156.835168486927
179.015	0.2	211	5	1	43	31	12	5	0	0	0	stim013_stimuli_original_vehicles_planes_1.png	F	0	0	0	157.035193404299	157.235200279625
179.415	0.2	212	5	1	43	32	4	15	0	0	0	stim005_stimuli_original_animals_fish_1.png	Y	0	0	0	157.435213981778	157.63521110476
179.815	0.2	213	5	1	43	33	9	9	0	0	0	stim010_stimuli_original_vehicles_boats_2.png	L	0	0	0	157.835200182162	158.035199499456
180.215	0.2	214	5	1	43	34	6	10	0	0	0	stim007_stimuli_original_animals_fish_3.png	Q	0	0	0	158.235225635814	158.435232511256
180.615	0.2	215	5	1	43	35	11	2	0	0	0	stim012_stimuli_original_vehicles_boats_4.png	C	0	0	0	158.635241337237	158.835250163102
183.565	0.2	216	6	0	11	0	15	6	0	0	0	stim016_stimuli_original_vehicles_planes_4.png	G	0	0	0	161.58531964873	161.785311895655
183.965	0.2	217	6	0	11	1	5	8	0	0	0	stim006_stimuli_original_animals_fish_2.png	K	0	0	0	161.985311944387	162.185334667447
184.365	0.2	218	6	0	11	2	4	1	0	0	0	stim005_stimuli_original_animals_fish_1.png	B	0	0	0	162.385351295234	162.585343054496
184.765	0.2	219	6	0	11	3	0	0	0	0	0	stim001_stimuli_original_animals_birds_1.png	A	0	0	0	162.785358950845	162.985351197654
185.165	0.2	220	6	0	11	4	10	9	0	0	0	stim011_stimuli_original_vehicles_boats_3.png	L	0	0	0	163.185374896042	163.38536592375
185.565	0.2	221	6	0	11	5	11	14	0	0	0	stim012_stimuli_original_vehicles_boats_4.png	V	0	0	0	163.585367435473	163.785382844158
185.965	0.2	222	6	0	11	6	1	6	0	1	0	stim002_stimuli_original_animals_birds_2.png	G	0	0	0	163.985383380554	164.18537928455
186.365	0.2	223	6	0	11	7	2	7	0	0	0	stim003_stimuli_original_animals_birds_3.png	J	0	0	0	164.385369093274	164.5853888907
186.765	0.2	224	6	0	11	8	7	6	0	1	0	stim008_stimuli_original_animals_fish_4.png	G	0	0	0	164.785386013682	164.985383624327
187.165	0.2	225	6	0	11	9	5	13	1	0	0	stim006_stimuli_original_animals_fish_2.png	U	0	0	0	165.185408297926	165.385418099002
187.565	0.2	226	6	0	11	10	12	3	0	0	0	stim013_stimuli_original_vehicles_planes_1.png	D	0	0	0	165.585404738318	165.785424047965
187.965	0.2	227	6	0	11	11	5	11	1	0	1	stim006_stimuli_original_animals_fish_2.png	R	0	0	0	165.985413856688	166.185432435013
188.365	0.2	228	6	0	11	12	6	5	0	0	0	stim007_stimuli_original_animals_fish_3.png	F	0	0	0	166.385427851346	166.585444479249
188.765	0.2	229	6	0	11	13	3	10	0	0	0	stim004_stimuli_original_animals_birds_4.png	Q	0	0	0	166.785451842239	166.985438725329
189.165	0.2	230	6	0	11	14	14	12	0	0	0	stim015_stimuli_original_vehicles_planes_3.png	T	0	0	0	167.185460473062	167.385463691433
189.565	0.2	231	6	0	11	15	9	15	0	0	0	stim010_stimuli_original_vehicles_boats_2.png	Y	0	0	0	167.585876021883	167.785479636514
189.965	0.2	232	6	0	11	16	13	4	0	0	0	stim014_stimuli_original_vehicles_planes_2.png	E	0	0	0	167.985465544392	168.185476564569
190.365	0.2	233	6	0	11	17	8	2	0	0	0	stim009_stimuli_original_vehicles_boats_1.png	C	0	0	0	168.385482464684	168.58548690204
190.765	0.2	234	6	0	11	18	2	8	0	0	0	stim003_stimuli_original_animals_birds_3.png	K	0	0	0	168.785496215569	168.985485049081
191.165	0.2	235	6	0	11	19	4	13	0	0	0	stim005_stimuli_original_animals_fish_1.png	U	0	0	0	169.185494118836	169.385526838014
191.565	0.2	236	6	0	11	20	15	9	0	0	0	stim016_stimuli_original_vehicles_planes_4.png	L	0	0	0	169.585494216299	169.785530105117
191.965	0.2	237	6	0	11	21	12	14	0	0	0	stim013_stimuli_original_vehicles_planes_1.png	V	0	0	0	169.985529666184	170.185531421681
192.365	0.2	238	6	0	11	22	10	3	0	0	0	stim011_stimuli_original_vehicles_boats_3.png	D	0	0	0	170.385549512343	170.585547610535
192.765	0.2	239	6	0	11	23	5	6	0	0	0	stim006_stimuli_original_animals_fish_2.png	G	0	0	0	170.785560825025	170.985556972912
193.165	0.2	240	6	0	11	24	11	5	0	1	0	stim012_stimuli_original_vehicles_boats_4.png	F	0	0	0	171.185560922604	171.385564628523
193.565	0.2	241	6	0	11	25	3	12	0	0	0	stim004_stimuli_original_animals_birds_4.png	T	0	0	0	171.585577111575	171.785577891744
193.965	0.2	242	6	0	11	26	13	5	0	1	0	stim014_stimuli_original_vehicles_planes_2.png	F	0	0	0	171.985582816647	172.185589448316
194.365	0.2	243	6	0	11	27	6	7	1	0	0	stim007_stimuli_original_animals_fish_3.png	J	0	0	0	172.385592910345	172.585599542013
194.765	0.2	244	6	0	11	28	7	2	0	0	0	stim008_stimuli_original_animals_fish_4.png	C	NaN	172.778141947812	0	172.785606173566	172.985985833686
195.165	0.2	245	6	0	11	29	6	1	1	0	1	stim007_stimuli_original_animals_fish_3.png	B	0	0	0	173.185615779716	173.385617535096
195.565	0.2	246	6	0	11	30	14	11	0	0	0	stim015_stimuli_original_vehicles_planes_3.png	R	0	0	0	173.585625141975	173.785632748855
195.965	0.2	247	6	0	11	31	9	10	0	0	0	stim010_stimuli_original_vehicles_boats_2.png	Q	0	0	0	173.985640843282	174.185644793091
196.365	0.2	248	6	0	11	32	0	0	0	0	0	stim001_stimuli_original_animals_birds_1.png	A	0	0	0	174.385634114151	174.585641964804
196.765	0.2	249	6	0	11	33	1	4	0	0	0	stim002_stimuli_original_animals_birds_2.png	E	0	0	0	174.785661030794	174.985645475681
197.165	0.2	250	6	0	11	34	8	5	0	0	0	stim009_stimuli_original_vehicles_boats_1.png	F	0	0	0	175.185670393053	175.385674342746
197.565	0.2	251	6	0	11	35	6	15	0	0	0	stim007_stimuli_original_animals_fish_3.png	Y	0	0	0	175.585687313345	175.785687118303
200.515	0.2	252	7	1	16	0	13	9	0	0	0	stim014_stimuli_original_vehicles_planes_2.png	L	0	0	0	178.535762211657	178.735761528951
200.915	0.2	253	7	1	16	1	9	12	0	0	0	stim010_stimuli_original_vehicles_boats_2.png	T	0	0	0	178.935792053933	179.135770403664
201.315	0.2	254	7	1	16	2	4	4	0	0	0	stim005_stimuli_original_animals_fish_1.png	E	0	0	0	179.335778741981	179.535786348744
201.715	0.2	255	7	1	16	3	3	8	0	0	0	stim004_stimuli_original_animals_birds_4.png	K	0	0	0	179.735787372803	179.935791322496
202.115	0.2	256	7	1	16	4	11	5	0	0	0	stim012_stimuli_original_vehicles_boats_4.png	F	0	0	0	180.135797954164	180.336260996992
202.515	0.2	257	7	1	16	5	1	6	0	0	0	stim002_stimuli_original_animals_birds_2.png	G	0	0	0	180.53581268026	180.735837353743
202.915	0.2	258	7	1	16	6	5	10	0	0	0	stim006_stimuli_original_animals_fish_2.png	Q	0	0	0	180.935817897785	181.135824529338
203.315	0.2	259	7	1	16	7	8	15	0	0	0	stim009_stimuli_original_vehicles_boats_1.png	Y	0	0	0	181.335831648554	181.53583608591
203.715	0.2	260	7	1	16	8	7	2	0	0	0	stim008_stimuli_original_animals_fish_4.png	C	0	0	0	181.735848081298	181.935843741521
204.115	0.2	261	7	1	16	9	6	1	0	0	0	stim007_stimuli_original_animals_fish_3.png	B	0	0	0	182.135852811276	182.335860418039
204.515	0.2	262	7	1	16	10	1	11	1	0	0	stim002_stimuli_original_animals_birds_2.png	R	0	0	0	182.535860222997	182.735868073767
204.915	0.2	263	7	1	16	11	14	3	0	0	0	stim015_stimuli_original_vehicles_planes_3.png	D	0	0	0	182.935869829147	183.135878411238
205.315	0.2	264	7	1	16	12	1	10	1	1	0	stim002_stimuli_original_animals_birds_2.png	Q	0	0	0	183.335888943751	183.535885091638
205.715	0.2	265	7	1	16	13	0	14	0	0	0	stim001_stimuli_original_animals_birds_1.png	V	0	0	0	183.735916591831	183.935897379648
206.115	0.2	266	7	1	16	14	2	10	0	1	1	stim003_stimuli_original_animals_birds_3.png	Q	0	0	0	184.135906449286	184.335916006705
206.515	0.2	267	7	1	16	15	12	7	0	0	0	stim013_stimuli_original_vehicles_planes_1.png	J	0	0	0	184.535914592561	184.73591829848
206.915	0.2	268	7	1	16	16	15	0	0	0	0	stim016_stimuli_original_vehicles_planes_4.png	A	0	0	0	184.93592566147	185.135926441639
207.315	0.2	269	7	1	16	17	10	13	0	0	0	stim011_stimuli_original_vehicles_boats_3.png	U	0	0	0	185.335935755167	185.535943118273
207.715	0.2	270	7	1	16	18	13	10	0	0	0	stim014_stimuli_original_vehicles_planes_2.png	Q	0	0	0	185.735936827958	185.935932488181
208.115	0.2	271	7	1	16	19	0	15	0	0	0	stim001_stimuli_original_animals_birds_1.png	Y	0	0	0	186.135943752131	186.335961355246
208.515	0.2	272	7	1	16	20	7	12	0	0	0	stim008_stimuli_original_animals_fish_4.png	T	0	0	0	186.535969693447	186.735957795638
208.915	0.2	273	7	1	16	21	10	2	1	0	0	stim011_stimuli_original_vehicles_boats_3.png	C	0	0	0	186.935960282455	187.135966670234
209.315	0.2	274	7	1	16	22	14	0	0	0	0	stim015_stimuli_original_vehicles_planes_3.png	A	0	0	0	187.335992562817	187.535994805861
209.715	0.2	275	7	1	16	23	10	1	1	1	0	stim011_stimuli_original_vehicles_boats_3.png	B	0	0	0	187.736004850827	187.936004899559
210.115	0.2	276	7	1	16	24	3	14	0	0	0	stim004_stimuli_original_animals_birds_4.png	V	0	0	0	188.136037618737	188.3360042657
210.515	0.2	277	7	1	16	25	11	1	0	1	1	stim012_stimuli_original_vehicles_boats_4.png	B	0	0	0	188.536023575347	188.736028012703
210.915	0.2	278	7	1	16	26	1	6	0	0	0	stim002_stimuli_original_animals_birds_2.png	G	0	0	0	188.936035619583	189.136019333033
211.315	0.2	279	7	1	16	27	2	7	0	0	0	stim003_stimuli_original_animals_birds_3.png	J	0	0	0	189.336046688491	189.536062584841
211.715	0.2	280	7	1	16	28	15	8	0	0	0	stim016_stimuli_original_vehicles_planes_4.png	K	0	0	0	189.73605507554	189.936045615701
212.115	0.2	281	7	1	16	29	10	5	0	0	0	stim011_stimuli_original_vehicles_boats_3.png	F	0	0	0	190.13606736355	190.336067412281
212.515	0.2	282	7	1	16	30	6	1	0	0	0	stim007_stimuli_original_animals_fish_3.png	B	0	0	0	190.536074287724	190.736077993643
212.916	0.2	283	7	1	16	31	5	11	0	0	0	stim006_stimuli_original_animals_fish_2.png	R	0	0	0	190.936301128007	191.136062974925
213.315	0.2	284	7	1	16	32	8	3	0	0	0	stim009_stimuli_original_vehicles_boats_1.png	D	0	0	0	191.336096181767	191.536103544873
213.715	0.2	285	7	1	16	33	4	4	0	0	0	stim005_stimuli_original_animals_fish_1.png	E	0	0	0	191.736107982229	191.936111931922
214.115	0.2	286	7	1	16	34	12	9	0	0	0	stim013_stimuli_original_vehicles_planes_1.png	L	0	0	0	192.136118807364	192.336121537955
214.515	0.2	287	7	1	16	35	9	13	0	0	0	stim010_stimuli_original_vehicles_boats_2.png	U	0	0	0	192.536129144835	192.736134313629
217.899	0.2	288	8	0	39	0	6	2	0	0	0	stim007_stimuli_original_animals_fish_3.png	C	0	0	0	195.919557271292	196.119549518102
218.299	0.2	289	8	0	39	1	0	15	0	0	0	stim001_stimuli_original_animals_birds_1.png	Y	0	0	0	196.319565902115	196.519559611916
218.699	0.2	290	8	0	39	2	8	12	0	0	0	stim009_stimuli_original_vehicles_boats_1.png	T	0	0	0	196.719569412991	196.919570924598
219.099	0.2	291	8	0	39	3	11	7	0	0	0	stim012_stimuli_original_vehicles_boats_4.png	J	0	0	0	197.119582676212	197.31958248117
219.499	0.2	292	8	0	39	4	5	4	1	0	0	stim006_stimuli_original_animals_fish_2.png	E	0	0	0	197.519590819487	197.719595012954
219.899	0.2	293	8	0	39	5	4	10	0	0	0	stim005_stimuli_original_animals_fish_1.png	Q	0	0	0	197.919601888396	198.11960437533
220.299	0.2	294	8	0	39	6	5	0	1	1	1	stim006_stimuli_original_animals_fish_2.png	A	0	0	0	198.319610763108	198.519613981363
220.699	0.2	295	8	0	39	7	2	8	0	0	0	stim003_stimuli_original_animals_birds_3.png	K	0	0	0	198.720098967082	198.919631145545
221.099	0.2	296	8	0	39	8	9	0	0	1	0	stim010_stimuli_original_vehicles_boats_2.png	A	0	0	0	199.119632657152	199.319634412648
221.499	0.2	297	8	0	39	9	3	3	0	0	0	stim004_stimuli_original_animals_birds_4.png	D	0	0	0	199.519640556653	199.71964596922
221.899	0.2	298	8	0	39	10	13	5	0	0	0	stim014_stimuli_original_vehicles_planes_2.png	F	0	0	0	199.919654551311	200.119661426637
222.299	0.2	299	8	0	39	11	15	0	0	0	0	stim016_stimuli_original_vehicles_planes_4.png	A	0	0	0	200.319667814532	200.519668594701
222.699	0.2	300	8	0	39	12	14	9	0	0	0	stim015_stimuli_original_vehicles_planes_3.png	L	0	0	0	200.71967766434	200.9196799075
223.099	0.2	301	8	0	39	13	7	1	0	0	0	stim008_stimuli_original_animals_fish_4.png	B	0	0	0	201.119682394317	201.319705117377
223.499	0.2	302	8	0	39	14	5	13	0	0	0	stim006_stimuli_original_animals_fish_2.png	U	0	0	0	201.519695901312	201.719702045317
223.899	0.2	303	8	0	39	15	1	6	0	0	0	stim002_stimuli_original_animals_birds_2.png	G	0	0	0	201.919705995009	202.119709944818
224.299	0.2	304	8	0	39	16	12	11	0	0	0	stim013_stimuli_original_vehicles_planes_1.png	R	0	0	0	202.319717064034	202.519720526063
224.699	0.2	305	8	0	39	17	10	14	0	0	0	stim011_stimuli_original_vehicles_boats_3.png	V	0	0	0	202.719744468224	202.919734033174
225.099	0.2	306	8	0	39	18	14	10	0	0	0	stim015_stimuli_original_vehicles_planes_3.png	Q	0	0	0	203.11972018471	203.319744370645
225.499	0.2	307	8	0	39	19	11	12	0	0	0	stim012_stimuli_original_vehicles_boats_4.png	T	0	0	0	203.519749539439	203.719754708232
225.899	0.2	308	8	0	39	20	6	1	0	0	0	stim007_stimuli_original_animals_fish_3.png	B	0	0	0	203.919760852121	204.120018119924
226.299	0.2	309	8	0	39	21	13	5	0	0	0	stim014_stimuli_original_vehicles_planes_2.png	F	0	0	0	204.319771921146	204.519770507002
226.699	0.2	310	8	0	39	22	1	7	0	0	0	stim002_stimuli_original_animals_birds_2.png	J	0	0	0	204.719783965265	204.919791328372
227.099	0.2	311	8	0	39	23	9	14	0	0	0	stim010_stimuli_original_vehicles_boats_2.png	V	0	0	0	205.119794302853	205.319796302123
227.499	0.2	312	8	0	39	24	0	15	0	0	0	stim001_stimuli_original_animals_birds_1.png	Y	0	0	0	205.519802689902	205.719801763422
227.899	0.2	313	8	0	39	25	5	13	0	0	0	stim006_stimuli_original_animals_fish_2.png	U	0	0	0	205.919815221685	206.119816001854
228.299	0.2	314	8	0	39	26	3	3	0	0	0	stim004_stimuli_original_animals_birds_4.png	D	0	0	0	206.319826778257	206.519828533637
228.699	0.2	315	8	0	39	27	0	9	1	0	0	stim001_stimuli_original_animals_birds_1.png	L	0	0	0	206.719831752009	206.919837652124
229.099	0.2	316	8	0	39	28	8	2	0	0	0	stim009_stimuli_original_vehicles_boats_1.png	C	0	0	0	207.119846234214	207.319846282946
229.499	0.2	317	8	0	39	29	0	5	1	1	1	stim001_stimuli_original_animals_birds_1.png	F	0	0	0	207.519855840364	207.719857351971
229.899	0.2	318	8	0	39	30	10	4	0	0	0	stim011_stimuli_original_vehicles_boats_3.png	E	NaN	208.111651067738	1	207.919886414078	208.11987232184
230.299	0.2	319	8	0	39	31	4	5	0	1	0	stim005_stimuli_original_animals_fish_1.png	F	0	0	0	208.319874808658	208.519879489904
230.699	0.2	320	8	0	39	32	7	11	0	0	0	stim008_stimuli_original_animals_fish_4.png	R	0	0	0	208.719887584331	208.919887876837
231.099	0.2	321	8	0	39	33	12	8	0	0	0	stim013_stimuli_original_vehicles_planes_1.png	K	0	0	0	209.119892801857	209.319898458198
231.499	0.2	322	8	0	39	34	15	0	0	0	0	stim016_stimuli_original_vehicles_planes_4.png	A	0	0	0	209.519910453702	209.719909527223
231.899	0.2	323	8	0	39	35	2	6	0	0	0	stim003_stimuli_original_animals_birds_3.png	G	0	0	0	209.919918109314	210.119921327569
235.183	0.2	324	9	1	4	0	2	0	0	0	0	stim003_stimuli_original_animals_birds_3.png	A	0	0	0	213.203338287538	213.403341993457
235.583	0.2	325	9	1	4	1	14	4	0	0	0	stim015_stimuli_original_vehicles_planes_3.png	E	0	0	0	213.603349356446	213.803349649068
235.983	0.2	326	9	1	4	2	10	9	0	0	0	stim011_stimuli_original_vehicles_boats_3.png	L	0	0	0	214.003364570206	214.203359498992
236.383	0.2	327	9	1	4	3	7	8	0	0	0	stim008_stimuli_original_animals_fish_4.png	K	0	0	0	214.403371006716	214.603378369822
236.783	0.2	328	9	1	4	4	3	15	0	0	0	stim004_stimuli_original_animals_birds_4.png	Y	0	0	0	214.803377687116	215.003381636809
237.183	0.2	329	9	1	4	5	15	12	0	0	0	stim016_stimuli_original_vehicles_planes_4.png	T	0	0	0	215.203389487462	215.403393437155
237.583	0.2	330	9	1	4	6	9	6	0	0	0	stim010_stimuli_original_vehicles_boats_2.png	G	0	0	0	215.603400800261	215.803408650914
237.983	0.2	331	9	1	4	7	6	5	0	0	0	stim007_stimuli_original_animals_fish_3.png	F	0	0	0	216.00341308827	216.203413380776
238.383	0.2	332	9	1	4	8	5	13	0	0	0	stim006_stimuli_original_animals_fish_2.png	U	0	0	0	216.403422206757	216.60342713166
238.783	0.2	333	9	1	4	9	8	11	0	0	0	stim009_stimuli_original_vehicles_boats_1.png	R	0	0	0	216.803407919477	217.003408455872
239.183	0.2	334	9	1	4	10	15	1	1	1	0	stim016_stimuli_original_vehicles_planes_4.png	B	0	0	0	217.203449952183	217.403433178202
239.583	0.2	335	9	1	4	11	1	10	0	0	0	stim002_stimuli_original_animals_birds_2.png	Q	0	0	0	217.603460045997	217.803462532815
239.983	0.2	336	9	1	4	12	15	1	1	1	1	stim016_stimuli_original_vehicles_planes_4.png	B	0	0	0	218.003465263522	218.203455803683
240.383	0.2	337	9	1	4	13	13	2	0	0	0	stim014_stimuli_original_vehicles_planes_2.png	C	NaN	218.595243667951	1	218.403478770517	218.603471017326
240.783	0.2	338	9	1	4	14	4	3	0	0	0	stim005_stimuli_original_animals_fish_1.png	D	0	0	0	218.80347326037	219.003492813907
241.183	0.2	339	9	1	4	15	11	1	0	0	0	stim012_stimuli_original_vehicles_boats_4.png	B	0	0	0	219.203499445575	219.403494861908
241.583	0.2	340	9	1	4	16	12	7	0	0	0	stim013_stimuli_original_vehicles_planes_1.png	J	0	0	0	219.603508076398	219.803511782316
241.983	0.2	341	9	1	4	17	0	14	0	0	0	stim001_stimuli_original_animals_birds_1.png	V	0	0	0	220.003518170095	220.203510173131
242.383	0.2	342	9	1	4	18	14	0	0	0	0	stim015_stimuli_original_vehicles_planes_3.png	A	0	0	0	220.403529482894	220.603533432586
242.783	0.2	343	9	1	4	19	7	12	0	0	0	stim008_stimuli_original_animals_fish_4.png	T	0	0	0	220.803541770903	221.003546208143
243.183	0.2	344	9	1	4	20	1	11	0	0	0	stim002_stimuli_original_animals_birds_2.png	R	0	0	0	221.203539917944	221.403554595192
243.583	0.2	345	9	1	4	21	3	4	0	0	0	stim004_stimuli_original_animals_birds_4.png	E	0	0	0	221.603565127822	221.803563957568
243.983	0.2	346	9	1	4	22	2	13	0	0	0	stim003_stimuli_original_animals_birds_3.png	U	0	0	0	222.003572539659	222.203575514141
244.383	0.2	347	9	1	4	23	1	15	1	1	0	stim002_stimuli_original_animals_birds_2.png	Y	0	0	0	222.403852530406	222.603598285932
244.783	0.2	348	9	1	4	24	10	1	0	0	0	stim011_stimuli_original_vehicles_boats_3.png	B	0	0	0	222.803593214718	223.003597408184
245.183	0.2	349	9	1	4	25	1	15	1	1	1	stim002_stimuli_original_animals_birds_2.png	Y	0	0	0	223.203609159798	223.403607258108
245.583	0.2	350	9	1	4	26	11	8	0	0	0	stim012_stimuli_original_vehicles_boats_4.png	K	0	0	0	223.603614864987	223.803630029899
245.983	0.2	351	9	1	4	27	13	5	0	0	0	stim014_stimuli_original_vehicles_planes_2.png	F	0	0	0	224.003624227247	224.203612816986
246.383	0.2	352	9	1	4	28	5	6	0	0	0	stim006_stimuli_original_animals_fish_2.png	G	0	0	0	224.403634564718	224.60364412202
246.783	0.2	353	9	1	4	29	6	9	0	0	0	stim007_stimuli_original_animals_fish_3.png	L	0	0	0	224.803646852728	225.003649827209
247.183	0.2	354	9	1	4	30	12	15	0	0	0	stim013_stimuli_original_vehicles_planes_1.png	Y	0	0	0	225.203664748347	225.403659433359
247.583	0.2	355	9	1	4	31	15	3	0	0	0	stim016_stimuli_original_vehicles_planes_4.png	D	0	0	0	225.603667527786	225.803658555611
247.983	0.2	356	9	1	4	32	8	7	0	0	0	stim009_stimuli_original_vehicles_boats_1.png	J	0	0	0	226.00367713382	226.203680352191
248.383	0.2	357	9	1	4	33	9	10	0	0	0	stim010_stimuli_original_vehicles_boats_2.png	Q	0	0	0	226.403699418064	226.603682156303
248.783	0.2	358	9	1	4	34	4	14	0	0	0	stim005_stimuli_original_animals_fish_1.png	V	0	0	0	226.803707073675	227.003684448195
249.183	0.2	359	9	1	4	35	0	2	0	0	0	stim001_stimuli_original_animals_birds_1.png	C	0	0	0	227.203694493044	227.403712339932
252.5	0.2	360	10	0	29	0	5	5	0	0	0	stim006_stimuli_original_animals_fish_2.png	F	NaN	230.712216120446	0	230.520466582966	230.720450296532
252.9	0.2	361	10	0	29	1	10	15	0	0	0	stim011_stimuli_original_vehicles_boats_3.png	Y	0	0	0	230.920473750914	231.120476969285
253.3	0.2	362	10	0	29	2	8	0	0	0	0	stim009_stimuli_original_vehicles_boats_1.png	A	0	0	0	231.320488477009	231.52048755053
253.7	0.2	363	10	0	29	3	13	2	0	0	0	stim014_stimuli_original_vehicles_planes_2.png	C	0	0	0	231.720497107948	231.920497888117
254.1	0.2	364	10	0	29	4	4	3	0	0	0	stim005_stimuli_original_animals_fish_1.png	D	0	0	0	232.120504275896	232.320511639002
254.5	0.2	365	10	0	29	5	11	10	0	0	0	stim012_stimuli_original_vehicles_boats_4.png	Q	0	0	0	232.520517051569	232.720536604989
254.9	0.2	366	10	0	29	6	14	12	1	0	0	stim015_stimuli_original_vehicles_planes_3.png	T	0	0	0	232.920529827126	233.120528169209
255.3	0.2	367	10	0	29	7	2	13	0	0	0	stim003_stimuli_original_animals_birds_3.png	U	0	0	0	233.320538457949	233.520538506797
255.7	0.2	368	10	0	29	8	14	4	1	0	1	stim015_stimuli_original_vehicles_planes_3.png	E	0	0	0	233.720529778395	233.920538604259
256.1	0.2	369	10	0	29	9	1	9	0	0	0	stim002_stimuli_original_animals_birds_2.png	L	0	0	0	234.120562546304	234.320546747535
256.5	0.2	370	10	0	29	10	7	1	0	0	0	stim008_stimuli_original_animals_fish_4.png	B	NaN	234.712339000427	1	234.520574102877	234.720571225975
256.9	0.2	371	10	0	29	11	0	13	0	1	0	stim001_stimuli_original_animals_birds_1.png	U	0	0	0	234.920562497573	235.120584001532
257.3	0.2	372	10	0	29	12	6	8	0	0	0	stim007_stimuli_original_animals_fish_3.png	K	0	0	0	235.320590389427	235.520847900887
257.7	0.2	373	10	0	29	13	14	13	0	1	0	stim015_stimuli_original_vehicles_planes_3.png	U	0	0	0	235.720600970672	235.920588585199
258.1	0.2	374	10	0	29	14	12	6	0	0	0	stim013_stimuli_original_vehicles_planes_1.png	G	0	0	0	236.120611795806	236.320613795076
258.5	0.2	375	10	0	29	15	3	7	0	0	0	stim004_stimuli_original_animals_birds_4.png	J	0	0	0	236.520623840042	236.720609260257
258.9	0.2	376	10	0	29	16	9	11	0	0	0	stim010_stimuli_original_vehicles_boats_2.png	R	0	0	0	236.920632470865	237.120639590197
259.3	0.2	377	10	0	29	17	15	14	0	0	0	stim016_stimuli_original_vehicles_planes_4.png	V	0	0	0	237.320642564562	237.520630179089
259.7	0.2	378	10	0	29	18	14	15	0	0	0	stim015_stimuli_original_vehicles_planes_3.png	Y	0	0	0	237.720653389697	237.920656851842
260.1	0.2	379	10	0	29	19	11	9	0	0	0	stim012_stimuli_original_vehicles_boats_4.png	L	0	0	0	238.120667628245	238.3206708465
260.5	0.2	380	10	0	29	20	7	3	0	0	0	stim008_stimuli_original_animals_fish_4.png	D	0	0	0	238.520674308646	238.720661191619
260.9	0.2	381	10	0	29	21	6	12	0	0	0	stim007_stimuli_original_animals_fish_3.png	T	0	0	0	238.920685865218	239.120677868254
261.3	0.2	382	10	0	29	22	13	14	1	0	0	stim014_stimuli_original_vehicles_planes_2.png	V	0	0	0	239.320699372212	239.520705028553
261.7	0.2	383	10	0	29	23	8	6	0	0	0	stim009_stimuli_original_vehicles_boats_1.png	G	0	0	0	239.720691911643	239.920697567984
262.1	0.2	384	10	0	29	24	13	0	1	0	1	stim014_stimuli_original_vehicles_planes_2.png	A	0	0	0	240.120715171099	240.320705467486
262.5	0.2	385	10	0	29	25	1	7	0	0	0	stim002_stimuli_original_animals_birds_2.png	J	0	0	0	240.520728678093	240.720728726825
262.9	0.2	386	10	0	29	26	9	1	0	0	0	stim010_stimuli_original_vehicles_boats_2.png	B	NaN	241.112493429333	1	240.920728044235	241.120744184358
263.3	0.2	387	10	0	29	27	4	14	0	1	0	stim005_stimuli_original_animals_fish_1.png	V	0	0	0	241.32075398555	241.520756472368
263.7	0.2	388	10	0	29	28	13	2	0	0	0	stim014_stimuli_original_vehicles_planes_2.png	C	0	0	0	241.720747256419	241.920762177557
264.1	0.2	389	10	0	29	29	12	14	0	1	0	stim013_stimuli_original_vehicles_planes_1.png	V	0	0	0	242.120755887241	242.320775197004
264.5	0.2	390	10	0	29	30	10	11	0	0	0	stim011_stimuli_original_vehicles_boats_3.png	R	0	0	0	242.520781097119	242.720783096389
264.9	0.2	391	10	0	29	31	3	4	0	0	0	stim004_stimuli_original_animals_birds_4.png	E	0	0	0	242.920789484167	243.120782706304
265.3	0.2	392	10	0	29	32	2	13	0	0	0	stim003_stimuli_original_animals_birds_3.png	U	0	0	0	243.320811280748	243.520811329479
265.7	0.2	393	10	0	29	33	0	8	0	0	0	stim001_stimuli_original_animals_birds_1.png	K	0	0	0	243.720798456343	243.920814596582
266.1	0.2	394	10	0	29	34	15	10	0	0	0	stim016_stimuli_original_vehicles_planes_4.png	Q	0	0	0	244.12082000915	244.320826884592
266.5	0.2	395	10	0	29	35	5	5	0	0	0	stim006_stimuli_original_animals_fish_2.png	F	0	0	0	244.520827664761	244.720843804884
270.317	0.2	396	11	1	34	0	1	1	0	0	0	stim002_stimuli_original_animals_birds_2.png	B	0	0	0	248.337598291691	248.537605167134
270.717	0.2	397	11	1	34	1	2	4	0	0	0	stim003_stimuli_original_animals_birds_3.png	E	0	0	0	248.737608873053	248.937615260831
271.117	0.2	398	11	1	34	2	7	10	0	0	0	stim008_stimuli_original_animals_fish_4.png	Q	0	0	0	249.137622867711	249.33762364788
271.517	0.2	399	11	1	34	3	12	14	0	0	0	stim013_stimuli_original_vehicles_planes_1.png	V	0	0	0	249.537626134814	249.737633985467
271.917	0.2	400	11	1	34	4	4	0	1	0	0	stim005_stimuli_original_animals_fish_1.png	A	0	0	0	249.937645005644	250.137643347727
272.317	0.2	401	11	1	34	5	15	13	0	0	0	stim016_stimuli_original_vehicles_planes_4.png	U	0	0	0	250.337649735506	250.537653929088
272.717	0.2	402	11	1	34	6	4	5	1	0	0	stim005_stimuli_original_animals_fish_1.png	F	0	0	0	250.737662511179	250.937665729434
273.117	0.2	403	11	1	34	7	6	3	0	0	0	stim007_stimuli_original_animals_fish_3.png	D	0	0	0	251.137668947689	251.337670946959
273.517	0.2	404	11	1	34	8	13	11	0	0	0	stim014_stimuli_original_vehicles_planes_2.png	R	0	0	0	251.537683186238	251.737683478743
273.917	0.2	405	11	1	34	9	11	1	0	1	0	stim012_stimuli_original_vehicles_boats_4.png	B	0	0	0	251.937699131318	252.137698448612
274.317	0.2	406	11	1	34	10	5	7	0	0	0	stim006_stimuli_original_animals_fish_2.png	J	0	0	0	252.33770386118	252.5377029347
274.717	0.2	407	11	1	34	11	4	1	0	1	1	stim005_stimuli_original_animals_fish_1.png	B	0	0	0	252.737712004455	252.937714003725
275.117	0.2	408	11	1	34	12	8	2	0	0	0	stim009_stimuli_original_vehicles_boats_1.png	C	0	0	0	253.137723561027	253.337724585086
275.517	0.2	409	11	1	34	13	9	6	0	0	0	stim010_stimuli_original_vehicles_boats_2.png	G	0	0	0	253.537733654724	253.737737360643
275.917	0.2	410	11	1	34	14	14	15	0	0	0	stim015_stimuli_original_vehicles_planes_3.png	Y	0	0	0	253.937744236086	254.137745260028
276.317	0.2	411	11	1	34	15	0	8	0	0	0	stim001_stimuli_original_animals_birds_1.png	K	0	0	0	254.338234146708	254.537735361373
276.717	0.2	412	11	1	34	16	3	9	0	0	0	stim004_stimuli_original_animals_birds_4.png	L	0	0	0	254.737738823518	254.937738140812
277.117	0.2	413	11	1	34	17	10	12	0	0	0	stim011_stimuli_original_vehicles_boats_3.png	T	0	0	0	255.137783050537	255.337772615487
277.517	0.2	414	11	1	34	18	12	10	0	0	0	stim013_stimuli_original_vehicles_planes_1.png	Q	0	0	0	255.537793631898	255.737787585356
277.917	0.2	415	11	1	34	19	9	3	0	0	0	stim010_stimuli_original_vehicles_boats_2.png	D	0	0	0	255.937805188471	256.137790364795
278.317	0.2	416	11	1	34	20	8	0	0	0	0	stim009_stimuli_original_vehicles_boats_1.png	A	0	0	0	256.33780211641	256.537818744197
278.717	0.2	417	11	1	34	21	15	14	0	0	0	stim016_stimuli_original_vehicles_planes_4.png	V	0	0	0	256.737825863529	256.937830056995
279.117	0.2	418	11	1	34	22	6	9	0	0	0	stim007_stimuli_original_animals_fish_3.png	L	0	0	0	257.137838639086	257.33784648974
279.517	0.2	419	11	1	34	23	2	8	0	0	0	stim003_stimuli_original_animals_birds_3.png	K	0	0	0	257.537830934743	257.737852926366
279.917	0.2	420	11	1	34	24	1	4	1	0	0	stim002_stimuli_original_animals_birds_2.png	E	0	0	0	257.937858338933	258.137861557188
280.317	0.2	421	11	1	34	25	7	5	0	0	0	stim008_stimuli_original_animals_fish_4.png	F	0	0	0	258.337885743123	258.537870431785
280.717	0.2	422	11	1	34	26	1	11	1	0	0	stim002_stimuli_original_animals_birds_2.png	R	0	0	0	258.737874869141	258.937881500809
281.117	0.2	423	11	1	34	27	11	13	0	0	0	stim012_stimuli_original_vehicles_boats_4.png	U	0	0	0	259.137890326674	259.337877453538
281.517	0.2	424	11	1	34	28	3	6	0	0	0	stim004_stimuli_original_animals_birds_4.png	G	0	0	0	259.537900664262	259.738368827035
281.917	0.2	425	11	1	34	29	5	4	0	1	0	stim006_stimuli_original_animals_fish_2.png	E	0	0	0	259.937912952155	260.137914219988
282.317	0.2	426	11	1	34	30	13	15	0	0	0	stim014_stimuli_original_vehicles_planes_2.png	Y	0	0	0	260.337919876445	260.537909441395
282.717	0.2	427	11	1	34	31	0	4	0	1	1	stim001_stimuli_original_animals_birds_1.png	E	0	0	0	260.737929726252	260.937933676061
283.117	0.2	428	11	1	34	32	14	12	0	0	0	stim015_stimuli_original_vehicles_planes_3.png	T	0	0	0	261.137928117183	261.337943038321
283.517	0.2	429	11	1	34	33	10	7	0	0	0	stim011_stimuli_original_vehicles_boats_3.png	J	NaN	261.530483981245	1	261.537938454654	261.737938991049
283.917	0.2	430	11	1	34	34	4	2	0	0	0	stim005_stimuli_original_animals_fish_1.png	C	0	0	0	261.937963908422	262.137969077099
284.317	0.2	431	11	1	34	35	1	1	0	0	0	stim002_stimuli_original_animals_birds_2.png	B	0	0	0	262.337977171643	262.537975269952
287.467	0.2	432	12	0	16	0	13	9	0	0	0	stim014_stimuli_original_vehicles_planes_2.png	L	0	0	0	265.488061383367	265.688058506465
287.867	0.2	433	12	0	16	1	9	12	0	0	0	stim010_stimuli_original_vehicles_boats_2.png	T	0	0	0	265.888049046625	266.088072501123
288.267	0.2	434	12	0	16	2	4	4	0	0	0	stim005_stimuli_original_animals_fish_1.png	E	0	0	0	266.288076938479	266.488075524336
288.667	0.2	435	12	0	16	3	3	8	0	0	0	stim004_stimuli_original_animals_birds_4.png	K	0	0	0	266.688083131216	266.88808903133
289.067	0.2	436	12	0	16	4	11	5	0	0	0	stim012_stimuli_original_vehicles_boats_4.png	F	0	0	0	267.088094443898	267.288506774465
289.467	0.2	437	12	0	16	5	1	6	0	0	0	stim002_stimuli_original_animals_birds_2.png	G	0	0	0	267.488088690094	267.688111169264
289.867	0.2	438	12	0	16	6	5	10	0	0	0	stim006_stimuli_original_animals_fish_2.png	Q	0	0	0	267.888120970456	268.088118337328
290.267	0.2	439	12	0	16	7	8	15	0	0	0	stim009_stimuli_original_vehicles_boats_1.png	Y	0	0	0	268.288124237442	268.488130381447
290.667	0.2	440	12	0	16	8	7	2	0	0	0	stim008_stimuli_original_animals_fish_4.png	C	0	0	0	268.688133843592	268.888146082754
291.067	0.2	441	12	0	16	9	6	1	0	0	0	stim007_stimuli_original_animals_fish_3.png	B	0	0	0	269.088145156275	269.288152763154
291.467	0.2	442	12	0	16	10	1	11	1	0	0	stim002_stimuli_original_animals_birds_2.png	R	0	0	0	269.488155493862	269.688142864499
291.867	0.2	443	12	0	16	11	14	3	0	0	0	stim015_stimuli_original_vehicles_planes_3.png	D	0	0	0	269.888160711387	270.0881770954
292.267	0.2	444	12	0	16	12	1	10	1	1	1	stim002_stimuli_original_animals_birds_2.png	Q	0	0	0	270.288179338444	270.488178168074
292.667	0.2	445	12	0	16	13	0	14	0	0	0	stim001_stimuli_original_animals_birds_1.png	V	0	0	0	270.688190407353	270.888165831333
293.067	0.2	446	12	0	16	14	2	10	0	1	0	stim003_stimuli_original_animals_birds_3.png	Q	0	0	0	271.088180752471	271.288186896476
293.467	0.2	447	12	0	16	15	12	7	0	0	0	stim013_stimuli_original_vehicles_planes_1.png	J	0	0	0	271.488196453778	271.688231611159
293.867	0.2	448	12	0	16	16	15	0	0	0	0	stim016_stimuli_original_vehicles_planes_4.png	A	0	0	0	271.888207035139	272.088207327761
294.267	0.2	449	12	0	16	17	10	13	0	0	0	stim011_stimuli_original_vehicles_boats_3.png	U	0	0	0	272.288214203087	272.488228880451
294.667	0.2	450	12	0	16	18	13	10	0	0	0	stim014_stimuli_original_vehicles_planes_2.png	Q	0	0	0	272.688252822612	272.888252627454
295.067	0.2	451	12	0	16	19	0	15	0	0	0	stim001_stimuli_original_animals_birds_1.png	Y	0	0	0	273.088257552474	273.288259307854
295.467	0.2	452	12	0	16	20	7	12	0	0	0	stim008_stimuli_original_animals_fish_4.png	T	0	0	0	273.488265451859	273.688275253051
295.867	0.2	453	12	0	16	21	10	2	1	0	0	stim011_stimuli_original_vehicles_boats_3.png	C	0	0	0	273.888300901745	274.088278763928
296.267	0.2	454	12	0	16	22	14	0	0	0	0	stim015_stimuli_original_vehicles_planes_3.png	A	0	0	0	274.288280763081	274.488285200438
296.667	0.2	455	12	0	16	23	10	1	1	1	1	stim011_stimuli_original_vehicles_boats_3.png	B	0	0	0	274.688287443481	274.888303827494
297.067	0.2	456	12	0	16	24	3	14	0	0	0	stim004_stimuli_original_animals_birds_4.png	V	0	0	0	275.08830436389	275.288305387832
297.467	0.2	457	12	0	16	25	11	1	0	1	0	stim012_stimuli_original_vehicles_boats_4.png	B	NaN	275.480922643095	1	275.488311531837	275.68831572542
297.867	0.2	458	12	0	16	26	1	6	0	0	0	stim002_stimuli_original_animals_birds_2.png	G	0	0	0	275.888325770386	276.088329963852
298.267	0.2	459	12	0	16	27	2	7	0	0	0	stim003_stimuli_original_animals_birds_3.png	J	0	0	0	276.288333669771	276.488356880378
298.667	0.2	460	12	0	16	28	15	8	0	0	0	stim016_stimuli_original_vehicles_planes_4.png	K	0	0	0	276.688346689218	276.888346981723
299.067	0.2	461	12	0	16	29	10	5	0	0	0	stim011_stimuli_original_vehicles_boats_3.png	F	0	0	0	277.08835824579	277.288354881224
299.467	0.2	462	12	0	16	30	6	1	0	0	0	stim007_stimuli_original_animals_fish_3.png	B	0	0	0	277.48836492619	277.688365462469
299.868	0.2	463	12	0	16	31	5	11	0	0	0	stim006_stimuli_original_animals_fish_2.png	R	0	0	0	277.88884703489	278.088390428573
300.267	0.2	464	12	0	16	32	8	3	0	0	0	stim009_stimuli_original_vehicles_boats_1.png	D	0	0	0	278.288385601132	278.488388575613
300.667	0.2	465	12	0	16	33	4	4	0	0	0	stim005_stimuli_original_animals_fish_1.png	E	0	0	0	278.688396913931	278.888400376076
301.067	0.2	466	12	0	16	34	12	9	0	0	0	stim013_stimuli_original_vehicles_planes_1.png	L	0	0	0	279.088407982839	279.288410469773
301.467	0.2	467	12	0	16	35	9	13	0	0	0	stim010_stimuli_original_vehicles_boats_2.png	U	0	0	0	279.488418807974	279.688422513893
304.684	0.2	468	13	1	40	0	9	14	0	0	0	stim010_stimuli_original_vehicles_boats_2.png	V	0	0	0	282.705168321147	282.905178366113
305.084	0.2	469	13	1	40	1	11	9	0	0	0	stim012_stimuli_original_vehicles_boats_4.png	L	0	0	0	283.105178414844	283.305193579756
305.484	0.2	470	13	1	40	2	0	6	0	0	0	stim001_stimuli_original_animals_birds_1.png	G	0	0	0	283.505197285675	283.705206842977
305.884	0.2	471	13	1	40	3	6	12	0	0	0	stim007_stimuli_original_animals_fish_3.png	T	0	0	0	283.905204697512	284.10520450247
306.284	0.2	472	13	1	40	4	8	3	0	0	0	stim009_stimuli_original_vehicles_boats_1.png	D	0	0	0	284.30522137403	284.505218497128
306.684	0.2	473	13	1	40	5	7	15	1	0	0	stim008_stimuli_original_animals_fish_4.png	Y	0	0	0	284.705208793515	284.905229322263
307.084	0.2	474	13	1	40	6	12	4	0	0	0	stim013_stimuli_original_vehicles_planes_1.png	E	0	0	0	285.105238879565	285.305237465538
307.485	0.2	475	13	1	40	7	7	12	1	1	0	stim008_stimuli_original_animals_fish_4.png	T	0	0	0	285.505732691265	285.705252435408
307.884	0.2	476	13	1	40	8	4	11	0	0	0	stim005_stimuli_original_animals_fish_1.png	R	0	0	0	285.905242487905	286.105261310004
308.284	0.2	477	13	1	40	9	13	12	0	1	1	stim014_stimuli_original_vehicles_planes_2.png	T	0	0	0	286.305272086407	286.505273110466
308.684	0.2	478	13	1	40	10	15	2	0	0	0	stim016_stimuli_original_vehicles_planes_4.png	C	0	0	0	286.705260481103	286.905265406007
309.084	0.2	479	13	1	40	11	5	7	0	0	0	stim006_stimuli_original_animals_fish_2.png	J	0	0	0	287.105288860505	287.305276475032
309.484	0.2	480	13	1	40	12	7	5	0	0	0	stim008_stimuli_original_animals_fish_4.png	F	0	0	0	287.505298222764	287.70530168491
309.884	0.2	481	13	1	40	13	1	10	0	0	0	stim002_stimuli_original_animals_birds_2.png	Q	0	0	0	287.905308560352	288.105318117654
310.284	0.2	482	13	1	40	14	10	1	0	0	0	stim011_stimuli_original_vehicles_boats_3.png	B	0	0	0	288.305307682604	288.505307487561
310.684	0.2	483	13	1	40	15	3	13	0	0	0	stim004_stimuli_original_animals_birds_4.png	U	0	0	0	288.705314850551	288.905315143173
311.084	0.2	484	13	1	40	16	2	8	0	0	0	stim003_stimuli_original_animals_birds_3.png	K	0	0	0	289.105351031874	289.305346448324
311.484	0.2	485	13	1	40	17	14	0	0	0	0	stim015_stimuli_original_vehicles_planes_3.png	A	0	0	0	289.505358931376	289.705355079146
311.884	0.2	486	13	1	40	18	0	14	0	0	0	stim001_stimuli_original_animals_birds_1.png	V	0	0	0	289.905344887869	290.105367123382
312.284	0.2	487	13	1	40	19	8	2	0	0	0	stim009_stimuli_original_vehicles_boats_1.png	C	0	0	0	290.305374730146	290.505363563774
312.684	0.2	488	13	1	40	20	13	3	0	0	0	stim014_stimuli_original_vehicles_planes_2.png	D	0	0	0	290.705523551442	290.905376095558
313.084	0.2	489	13	1	40	21	1	10	0	0	0	stim002_stimuli_original_animals_birds_2.png	Q	0	0	0	291.105401256704	291.305400086334
313.484	0.2	490	13	1	40	22	10	1	0	0	0	stim011_stimuli_original_vehicles_boats_3.png	B	0	0	0	291.505405011354	291.705406279187
313.884	0.2	491	13	1	40	23	5	7	0	0	0	stim006_stimuli_original_animals_fish_2.png	J	0	0	0	291.905399745097	292.105418323306
314.284	0.2	492	13	1	40	24	7	5	0	0	0	stim008_stimuli_original_animals_fish_4.png	F	0	0	0	292.305425442522	292.505414519925
314.684	0.2	493	13	1	40	25	2	15	0	0	0	stim003_stimuli_original_animals_birds_3.png	Y	0	0	0	292.705436023884	292.905425832607
315.084	0.2	494	13	1	40	26	12	13	1	0	0	stim013_stimuli_original_vehicles_planes_1.png	U	0	0	0	293.105446605245	293.305451042601
315.484	0.2	495	13	1	40	27	11	4	0	0	0	stim012_stimuli_original_vehicles_boats_4.png	E	0	0	0	293.505460112239	293.70545942965
315.884	0.2	496	13	1	40	28	12	7	1	1	0	stim013_stimuli_original_vehicles_planes_1.png	J	0	0	0	293.905472644023	294.105453675729
316.284	0.2	497	13	1	40	29	4	12	0	0	0	stim005_stimuli_original_animals_fish_1.png	T	0	0	0	294.305476886337	294.505465476075
316.684	0.2	498	13	1	40	30	15	7	0	1	1	stim016_stimuli_original_vehicles_planes_4.png	J	0	0	0	294.70547162008	294.905476544984
317.084	0.2	499	13	1	40	31	3	8	0	0	0	stim004_stimuli_original_animals_birds_4.png	K	0	0	0	295.105482688989	295.305503949174
317.484	0.2	500	13	1	40	32	12	6	0	0	0	stim013_stimuli_original_vehicles_planes_1.png	G	0	0	0	295.505509605631	295.705496244831
317.884	0.2	501	13	1	40	33	6	0	0	0	0	stim007_stimuli_original_animals_fish_3.png	A	0	0	0	295.905504826922	296.105795496493
318.284	0.2	502	13	1	40	34	9	11	0	0	0	stim010_stimuli_original_vehicles_boats_2.png	R	0	0	0	296.305531012011	296.505530573195
318.684	0.2	503	13	1	40	35	14	9	0	0	0	stim015_stimuli_original_vehicles_planes_3.png	L	0	0	0	296.705523551442	296.905529695447
321.868	0.2	504	14	0	35	0	3	6	0	0	0	stim004_stimuli_original_animals_birds_4.png	G	0	0	0	299.888949191081	300.088966794079
322.268	0.2	505	14	0	35	1	4	10	0	0	0	stim005_stimuli_original_animals_fish_1.png	Q	0	0	0	300.288977570483	300.488981276401
322.668	0.2	506	14	0	35	2	9	2	0	0	0	stim010_stimuli_original_vehicles_boats_2.png	C	0	0	0	300.688989370828	300.888988444349
323.068	0.2	507	14	0	35	3	14	9	0	0	0	stim015_stimuli_original_vehicles_planes_3.png	L	0	0	0	301.088995563565	301.288996587624
323.468	0.2	508	14	0	35	4	0	8	0	0	0	stim001_stimuli_original_animals_birds_1.png	K	0	0	0	301.489011264988	301.689010338509
323.868	0.2	509	14	0	35	5	12	12	0	0	0	stim013_stimuli_original_vehicles_planes_1.png	T	0	0	0	301.888998928131	302.089016043581
324.268	0.2	510	14	0	35	6	5	5	0	0	0	stim006_stimuli_original_animals_fish_2.png	F	0	0	0	302.289005608531	302.489037840161
324.668	0.2	511	14	0	35	7	7	1	0	0	0	stim008_stimuli_original_animals_fish_4.png	B	0	0	0	302.689024723251	302.889039644389
325.068	0.2	512	14	0	35	8	10	4	0	0	0	stim011_stimuli_original_vehicles_boats_3.png	E	0	0	0	303.089039205457	303.28904632479
325.468	0.2	513	14	0	35	9	8	7	0	0	0	stim009_stimuli_original_vehicles_boats_1.png	J	0	0	0	303.489498152398	303.689049591776
325.868	0.2	514	14	0	35	10	7	11	1	0	0	stim008_stimuli_original_animals_fish_4.png	R	0	0	0	303.889035255765	304.089043106418
326.268	0.2	515	14	0	35	11	13	3	0	1	0	stim014_stimuli_original_vehicles_planes_2.png	D	0	0	0	304.289078263799	304.489061977365
326.668	0.2	516	14	0	35	12	7	0	1	0	1	stim008_stimuli_original_animals_fish_4.png	A	0	0	0	304.689085675636	304.889086211915
327.068	0.2	517	14	0	35	13	15	3	0	1	0	stim016_stimuli_original_vehicles_planes_4.png	D	0	0	0	305.08909528167	305.289101425675
327.468	0.2	518	14	0	35	14	11	15	0	0	0	stim012_stimuli_original_vehicles_boats_4.png	Y	0	0	0	305.489106594468	305.689092989895
327.868	0.2	519	14	0	35	15	6	13	0	0	0	stim007_stimuli_original_animals_fish_3.png	U	0	0	0	305.889116444392	306.089129171218
328.268	0.2	520	14	0	35	16	1	3	0	0	0	stim002_stimuli_original_animals_birds_2.png	D	0	0	0	306.289132145699	306.489137558267
328.668	0.2	521	14	0	35	17	2	14	0	0	0	stim003_stimuli_original_animals_birds_3.png	V	0	0	0	306.689098841278	306.889125465299
329.068	0.2	522	14	0	35	18	14	2	0	0	0	stim015_stimuli_original_vehicles_planes_3.png	C	0	0	0	307.089151113993	307.289151894278
329.468	0.2	523	14	0	35	19	3	1	0	0	0	stim004_stimuli_original_animals_birds_4.png	B	0	0	0	307.489166571526	307.689172959304
329.868	0.2	524	14	0	35	20	13	6	0	0	0	stim014_stimuli_original_vehicles_planes_2.png	G	0	0	0	307.889152528136	308.089175007306
330.268	0.2	525	14	0	35	21	15	11	0	0	0	stim016_stimuli_original_vehicles_planes_4.png	R	0	0	0	308.289179444662	308.48918217537
330.668	0.2	526	14	0	35	22	3	15	1	0	0	stim004_stimuli_original_animals_birds_4.png	Y	0	0	0	308.689193195547	308.889480695594
331.068	0.2	527	14	0	35	23	0	7	0	1	0	stim001_stimuli_original_animals_birds_1.png	J	0	0	0	309.089174519759	309.289210164687
331.468	0.2	528	14	0	35	24	3	13	1	0	1	stim004_stimuli_original_animals_birds_4.png	U	0	0	0	309.489211188629	309.68921708886
331.868	0.2	529	14	0	35	25	11	7	0	1	0	stim012_stimuli_original_vehicles_boats_4.png	J	0	0	0	309.889222745202	310.089208409307
332.268	0.2	530	14	0	35	26	7	8	0	0	0	stim008_stimuli_original_animals_fish_4.png	K	NaN	310.281808597851	1	310.289208701812	310.489210213418
332.668	0.2	531	14	0	35	27	4	10	0	0	0	stim005_stimuli_original_animals_fish_1.png	Q	0	0	0	310.689218795509	310.889246394741
333.068	0.2	532	14	0	35	28	1	7	0	0	0	stim002_stimuli_original_animals_birds_2.png	J	0	0	0	311.08923766634	311.289245516993
333.468	0.2	533	14	0	35	29	5	5	0	0	0	stim006_stimuli_original_animals_fish_2.png	F	0	0	0	311.48926507053	311.689269020222
333.868	0.2	534	14	0	35	30	12	12	0	0	0	stim013_stimuli_original_vehicles_planes_1.png	T	0	0	0	311.889276383328	312.089278138708
334.268	0.2	535	14	0	35	31	8	0	0	0	0	stim009_stimuli_original_vehicles_boats_1.png	A	0	0	0	312.289284526603	312.489290182944
334.668	0.2	536	14	0	35	32	9	14	0	0	0	stim010_stimuli_original_vehicles_boats_2.png	V	NaN	312.68185014301	0	312.689299496473	312.889299301431
335.068	0.2	537	14	0	35	33	2	9	0	0	0	stim003_stimuli_original_animals_birds_3.png	L	0	0	0	313.089305445435	313.289316709386
335.468	0.2	538	14	0	35	34	10	4	0	0	0	stim011_stimuli_original_vehicles_boats_3.png	E	0	0	0	313.489317977219	313.689322170685
335.868	0.2	539	14	0	35	35	6	3	0	0	0	stim007_stimuli_original_animals_fish_3.png	D	0	0	0	313.889331728104	314.089331533061
338.952	0.2	540	15	1	15	0	9	1	0	0	0	stim010_stimuli_original_vehicles_boats_2.png	B	0	0	0	316.972750638495	317.172751418664
339.352	0.2	541	15	1	15	1	2	0	0	0	0	stim003_stimuli_original_animals_birds_3.png	A	0	0	0	317.372757318895	317.57274542097
339.752	0.2	542	15	1	15	2	11	3	0	0	0	stim012_stimuli_original_vehicles_boats_4.png	D	0	0	0	317.772751564975	317.972774288035
340.152	0.2	543	15	1	15	3	10	14	0	0	0	stim011_stimuli_original_vehicles_boats_3.png	V	0	0	0	318.172782138688	318.372786576045
340.552	0.2	544	15	1	15	4	4	9	0	0	0	stim005_stimuli_original_animals_fish_1.png	L	0	0	0	318.572773215245	318.772795206867
340.952	0.2	545	15	1	15	5	7	2	0	1	0	stim008_stimuli_original_animals_fish_4.png	C	0	0	0	318.972819636576	319.17280383769
341.352	0.2	546	15	1	15	6	12	11	0	0	0	stim013_stimuli_original_vehicles_planes_1.png	R	0	0	0	319.372801448451	319.572805398144
341.752	0.2	547	15	1	15	7	6	2	0	1	1	stim007_stimuli_original_animals_fish_3.png	C	0	0	0	319.772812761134	319.97287936986
342.152	0.2	548	15	1	15	8	2	8	1	0	0	stim003_stimuli_original_animals_birds_3.png	K	0	0	0	320.172807251103	320.37285411125
342.552	0.2	549	15	1	15	9	1	5	0	0	0	stim002_stimuli_original_animals_birds_2.png	F	0	0	0	320.572850259021	320.772847138229
342.952	0.2	550	15	1	15	10	2	7	1	0	0	stim003_stimuli_original_animals_birds_3.png	J	0	0	0	320.972847918514	321.172851136769
343.352	0.2	551	15	1	15	11	15	12	0	0	0	stim016_stimuli_original_vehicles_planes_4.png	T	0	0	0	321.372859231196	321.572860742803
343.752	0.2	552	15	1	15	12	13	13	0	0	0	stim014_stimuli_original_vehicles_planes_2.png	U	0	0	0	321.772844212595	321.972876444226
344.152	0.2	553	15	1	15	13	8	10	0	0	0	stim009_stimuli_original_vehicles_boats_1.png	Q	0	0	0	322.172882100567	322.372870446416
344.552	0.2	554	15	1	15	14	3	6	0	0	0	stim004_stimuli_original_animals_birds_4.png	G	0	0	0	322.572893900913	322.772879564902
344.952	0.2	555	15	1	15	15	14	4	0	0	0	stim015_stimuli_original_vehicles_planes_3.png	E	0	0	0	322.972903994611	323.172906969092
345.352	0.2	556	15	1	15	16	0	2	0	0	0	stim001_stimuli_original_animals_birds_1.png	C	0	0	0	323.372896046494	323.572918038117
345.752	0.2	557	15	1	15	17	5	15	0	0	0	stim006_stimuli_original_animals_fish_2.png	Y	0	0	0	323.772923938232	323.972929838463
346.152	0.2	558	15	1	15	18	15	5	0	0	0	stim016_stimuli_original_vehicles_planes_4.png	F	0	0	0	324.172933056718	324.372921402683
346.552	0.2	559	15	1	15	19	2	0	0	0	0	stim003_stimuli_original_animals_birds_3.png	A	0	0	0	324.572926327586	324.772947587771
346.952	0.2	560	15	1	15	20	4	14	0	0	0	stim005_stimuli_original_animals_fish_1.png	V	0	0	0	324.97295421944	325.172941346304
347.352	0.2	561	15	1	15	21	6	3	0	0	0	stim007_stimuli_original_animals_fish_3.png	D	0	0	0	325.372965288348	325.572963142768
347.752	0.2	562	15	1	15	22	10	8	0	0	0	stim011_stimuli_original_vehicles_boats_3.png	K	0	0	0	325.772974650608	325.972945442307
348.152	0.2	563	15	1	15	23	13	13	0	0	0	stim014_stimuli_original_vehicles_planes_2.png	U	0	0	0	326.172988157719	326.372993570287
348.552	0.2	564	15	1	15	24	12	15	0	0	0	stim013_stimuli_original_vehicles_planes_1.png	Y	0	0	0	326.572982647573	326.772999275359
348.952	0.2	565	15	1	15	25	7	2	0	1	0	stim008_stimuli_original_animals_fish_4.png	C	0	0	0	326.9730107832	327.17301253858
349.352	0.2	566	15	1	15	26	5	1	0	0	0	stim006_stimuli_original_animals_fish_2.png	B	NaN	327.564794063917	0	327.373016488273	327.573018243769
349.752	0.2	567	15	1	15	27	8	2	0	1	1	stim009_stimuli_original_vehicles_boats_1.png	C	0	0	0	327.773010734469	327.97301346506
350.152	0.2	568	15	1	15	28	2	6	1	0	0	stim003_stimuli_original_animals_birds_3.png	G	0	0	0	328.173039845307	328.373046233086
350.552	0.2	569	15	1	15	29	11	12	0	0	0	stim012_stimuli_original_vehicles_boats_4.png	T	0	0	0	328.573032628512	328.773053401033
350.952	0.2	570	15	1	15	30	2	7	1	0	0	stim003_stimuli_original_animals_birds_3.png	J	0	0	0	328.973063202226	329.173088850919
351.352	0.2	571	15	1	15	31	9	4	0	0	0	stim010_stimuli_original_vehicles_boats_2.png	E	0	0	0	329.373080366408	329.573056521825
351.752	0.2	572	15	1	15	32	14	10	0	0	0	stim015_stimuli_original_vehicles_planes_3.png	Q	0	0	0	329.773077294347	329.973066615523
352.152	0.2	573	15	1	15	33	3	11	0	0	0	stim004_stimuli_original_animals_birds_4.png	R	0	0	0	330.173091045232	330.373096701573
352.552	0.2	574	15	1	15	34	0	2	0	0	0	stim001_stimuli_original_animals_birds_1.png	C	0	0	0	330.57310211414	330.773114109645
352.952	0.2	575	15	1	15	35	1	9	0	0	0	stim002_stimuli_original_animals_birds_2.png	L	0	0	0	330.973117815563	331.173115669983
355.485	0.2	576	16	0	12	0	7	9	0	0	0	stim008_stimuli_original_animals_fish_4.png	L	0	0	0	333.506521658506	333.706502690213
355.885	0.2	577	16	0	12	1	0	11	0	0	0	stim001_stimuli_original_animals_birds_1.png	R	0	0	0	333.906515417038	334.106532776263
356.285	0.2	578	16	0	12	2	11	5	0	0	0	stim012_stimuli_original_vehicles_boats_4.png	F	0	0	0	334.306538676494	334.5065401881
356.685	0.2	579	16	0	12	3	6	3	0	0	0	stim007_stimuli_original_animals_fish_3.png	D	0	0	0	334.706547307316	334.906554426532
357.085	0.2	580	16	0	12	4	5	15	0	0	0	stim006_stimuli_original_animals_fish_2.png	Y	0	0	0	335.106563252397	335.306561106932
357.485	0.2	581	16	0	12	5	14	0	0	0	0	stim015_stimuli_original_vehicles_planes_3.png	A	0	0	0	335.506572127109	335.706558278762
357.885	0.2	582	16	0	12	6	8	6	0	0	0	stim009_stimuli_original_vehicles_boats_1.png	G	0	0	0	335.906579051283	336.106583244749
358.285	0.2	583	16	0	12	7	4	8	0	0	0	stim005_stimuli_original_animals_fish_1.png	K	0	0	0	336.306589388754	336.506594313774
358.685	0.2	584	16	0	12	8	6	12	1	0	0	stim007_stimuli_original_animals_fish_3.png	T	0	0	0	336.706600945326	336.906597824651
359.085	0.2	585	16	0	12	9	15	1	0	0	0	stim016_stimuli_original_vehicles_planes_4.png	B	0	0	0	337.106610063813	337.306616207818
359.485	0.2	586	16	0	12	10	6	15	1	1	1	stim007_stimuli_original_animals_fish_3.png	Y	0	0	0	337.506621376611	337.706628252054
359.885	0.2	587	16	0	12	11	3	2	0	0	0	stim004_stimuli_original_animals_birds_4.png	C	0	0	0	337.906611234182	338.106632981915
360.285	0.2	588	16	0	12	12	10	15	0	1	0	stim011_stimuli_original_vehicles_boats_3.png	Y	0	0	0	338.306620840216	338.506624546135
360.685	0.2	589	16	0	12	13	13	7	0	0	0	stim014_stimuli_original_vehicles_planes_2.png	J	0	0	0	338.70664848818	338.906652437872
361.086	0.2	590	16	0	12	14	2	14	0	0	0	stim003_stimuli_original_animals_birds_3.png	V	0	0	0	339.10713644838	339.306671064929
361.485	0.2	591	16	0	12	15	12	13	0	0	0	stim013_stimuli_original_vehicles_planes_1.png	U	0	0	0	339.506670138449	339.706674819579
361.885	0.2	592	16	0	12	16	1	4	0	0	0	stim002_stimuli_original_animals_birds_2.png	E	0	0	0	339.906666578841	340.10668540094
362.285	0.2	593	16	0	12	17	9	10	0	0	0	stim010_stimuli_original_vehicles_boats_2.png	Q	0	0	0	340.306694958243	340.506694519427
362.685	0.2	594	16	0	12	18	10	9	0	0	0	stim011_stimuli_original_vehicles_boats_3.png	L	0	0	0	340.706701151095	340.906705100788
363.085	0.2	595	16	0	12	19	4	1	0	0	0	stim005_stimuli_original_animals_fish_1.png	B	0	0	0	341.106712951441	341.306714706821
363.485	0.2	596	16	0	12	20	13	12	0	0	0	stim014_stimuli_original_vehicles_planes_2.png	T	0	0	0	341.506721582264	341.706724556745
363.886	0.2	597	16	0	12	21	14	2	0	0	0	stim015_stimuli_original_vehicles_planes_3.png	C	0	0	0	341.906719729304	342.106734406669
364.286	0.2	598	16	0	12	22	7	13	0	0	0	stim008_stimuli_original_animals_fish_4.png	U	0	0	0	342.306746158283	342.506733772694
364.686	0.2	599	16	0	12	23	15	10	1	0	0	stim016_stimuli_original_vehicles_planes_4.png	Q	0	0	0	342.706737722503	342.906761664548
365.086	0.2	600	16	0	12	24	2	3	0	0	0	stim003_stimuli_original_animals_birds_3.png	D	0	0	0	343.1067741476	343.306772002019
365.486	0.2	601	16	0	12	25	15	6	1	1	1	stim016_stimuli_original_vehicles_planes_4.png	G	0	0	0	343.506775464164	343.706773074809
365.886	0.2	602	16	0	12	26	1	15	0	0	0	stim002_stimuli_original_animals_birds_2.png	Y	0	0	0	343.906804575003	344.106774879037
366.286	0.2	603	16	0	12	27	12	6	0	1	0	stim013_stimuli_original_vehicles_planes_1.png	G	0	0	0	344.306797114434	344.507272347808
366.686	0.2	604	16	0	12	28	8	4	0	0	0	stim009_stimuli_original_vehicles_boats_1.png	E	0	0	0	344.706809646217	344.906812376925
367.086	0.2	605	16	0	12	29	6	8	0	0	0	stim007_stimuli_original_animals_fish_3.png	K	0	0	0	345.106818033266	345.306822226848
367.486	0.2	606	16	0	12	30	0	14	0	0	0	stim001_stimuli_original_animals_birds_1.png	V	0	0	0	345.506828858401	345.706832320546
367.886	0.2	607	16	0	12	31	15	5	0	0	0	stim016_stimuli_original_vehicles_planes_4.png	F	0	0	0	345.906839683536	346.106843633228
368.286	0.2	608	16	0	12	32	3	6	0	0	0	stim004_stimuli_original_animals_birds_4.png	G	0	0	0	346.306851971545	346.50685250794
368.686	0.2	609	16	0	12	33	5	11	0	0	0	stim006_stimuli_original_animals_fish_2.png	R	0	0	0	346.706846705289	346.906863089302
369.086	0.2	610	16	0	12	34	11	0	0	0	0	stim012_stimuli_original_vehicles_boats_4.png	A	0	0	0	347.10686947708	347.306876108749
369.486	0.2	611	16	0	12	35	9	7	0	0	0	stim010_stimuli_original_vehicles_boats_2.png	J	0	0	0	347.506880545989	347.706883032923
372.352	0.2	612	17	1	29	0	5	5	0	0	0	stim006_stimuli_original_animals_fish_2.png	F	0	0	0	350.373630156624	350.573632155894
372.752	0.2	613	17	1	29	1	10	15	0	0	0	stim011_stimuli_original_vehicles_boats_3.png	Y	0	0	0	350.773633911274	350.97360836016
373.152	0.2	614	17	1	29	2	8	0	0	0	0	stim009_stimuli_original_vehicles_boats_1.png	A	0	0	0	351.173642785987	351.373646735679
373.552	0.2	615	17	1	29	3	13	2	0	0	0	stim014_stimuli_original_vehicles_planes_2.png	C	0	0	0	351.573655073997	351.774136402528
373.952	0.2	616	17	1	29	4	4	3	0	0	0	stim005_stimuli_original_animals_fish_1.png	D	0	0	0	351.973670043866	352.173668142175
374.352	0.2	617	17	1	29	5	11	10	0	0	0	stim012_stimuli_original_vehicles_boats_4.png	Q	0	0	0	352.373678430915	352.573661900708
374.752	0.2	618	17	1	29	6	14	12	1	0	0	stim015_stimuli_original_vehicles_planes_3.png	T	0	0	0	352.773685111315	352.973691499094
375.152	0.2	619	17	1	29	7	2	13	0	0	0	stim003_stimuli_original_animals_birds_3.png	U	0	0	0	353.173698374536	353.373698910931
375.552	0.2	620	17	1	29	8	14	4	1	0	0	stim015_stimuli_original_vehicles_planes_3.png	E	0	0	0	353.573704567272	353.773709736066
375.952	0.2	621	17	1	29	9	1	9	0	0	0	stim002_stimuli_original_animals_birds_2.png	L	0	0	0	353.973718561931	354.173720317427
376.352	0.2	622	17	1	29	10	7	1	0	0	0	stim008_stimuli_original_animals_fish_4.png	B	0	0	0	354.373735726112	354.57373577496
376.752	0.2	623	17	1	29	11	0	13	0	1	0	stim001_stimuli_original_animals_birds_1.png	U	0	0	0	354.773739968427	354.973725876305
377.152	0.2	624	17	1	29	12	6	8	0	0	0	stim007_stimuli_original_animals_fish_3.png	K	0	0	0	355.173750305898	355.373751086183
377.552	0.2	625	17	1	29	13	14	13	0	1	1	stim015_stimuli_original_vehicles_planes_3.png	U	0	0	0	355.573760887259	355.773774101748
377.952	0.2	626	17	1	29	14	12	6	0	0	0	stim013_stimuli_original_vehicles_planes_1.png	G	0	0	0	355.973770005745	356.173775418312
378.353	0.2	627	17	1	29	15	3	7	0	0	0	stim004_stimuli_original_animals_birds_4.png	J	NaN	356.565549141727	1	356.373781562317	356.573784780572
378.753	0.2	628	17	1	29	16	9	11	0	0	0	stim010_stimuli_original_vehicles_boats_2.png	R	0	0	0	356.773799457937	356.973777076229
379.153	0.2	629	17	1	29	17	15	14	0	0	0	stim016_stimuli_original_vehicles_planes_4.png	V	0	0	0	357.1737790755	357.373770347098
379.553	0.2	630	17	1	29	18	14	15	0	0	0	stim015_stimuli_original_vehicles_planes_3.png	Y	0	0	0	357.573785024462	357.773820913164
379.953	0.2	631	17	1	29	19	11	9	0	0	0	stim012_stimuli_original_vehicles_boats_4.png	L	0	0	0	357.973838272388	358.173826374463
380.353	0.2	632	17	1	29	20	7	3	0	0	0	stim008_stimuli_original_animals_fish_4.png	D	0	0	0	358.373836175655	358.573838418699
380.753	0.2	633	17	1	29	21	6	12	0	0	0	stim007_stimuli_original_animals_fish_3.png	T	0	0	0	358.773846513126	358.973852413357
381.153	0.2	634	17	1	29	22	13	14	1	0	0	stim014_stimuli_original_vehicles_planes_2.png	V	0	0	0	359.173855144065	359.373841539491
381.553	0.2	635	17	1	29	23	8	6	0	0	0	stim009_stimuli_original_vehicles_boats_1.png	G	0	0	0	359.5738659692	359.773869675002
381.953	0.2	636	17	1	29	24	13	0	1	0	0	stim014_stimuli_original_vehicles_planes_2.png	A	0	0	0	359.973878744757	360.173883425887
382.353	0.2	637	17	1	29	25	1	7	0	0	0	stim002_stimuli_original_animals_birds_2.png	J	0	0	0	360.373879817547	360.573887180537
382.753	0.2	638	17	1	29	26	9	1	0	0	0	stim010_stimuli_original_vehicles_boats_2.png	B	0	0	0	360.77389503119	360.973908001906
383.153	0.2	639	17	1	29	27	4	14	0	1	0	stim005_stimuli_original_animals_fish_1.png	V	0	0	0	361.173908782075	361.373907368048
383.553	0.2	640	17	1	29	28	13	2	0	0	0	stim014_stimuli_original_vehicles_planes_2.png	C	0	0	0	361.57389888342	361.773921850254
383.953	0.2	641	17	1	29	29	12	14	0	1	1	stim013_stimuli_original_vehicles_planes_1.png	V	0	0	0	361.973923118087	362.173927067779
384.353	0.2	642	17	1	29	30	10	11	0	0	0	stim011_stimuli_original_vehicles_boats_3.png	R	0	0	0	362.374395474442	362.573946670047
384.753	0.2	643	17	1	29	31	3	4	0	0	0	stim004_stimuli_original_animals_birds_4.png	E	0	0	0	362.773939160747	362.973954081885
385.153	0.2	644	17	1	29	32	2	13	0	0	0	stim003_stimuli_original_animals_birds_3.png	U	0	0	0	363.173964614398	363.373948327964
385.553	0.2	645	17	1	29	33	0	8	0	0	0	stim001_stimuli_original_animals_birds_1.png	K	0	0	0	363.573972513899	363.773977195029
385.953	0.2	646	17	1	29	34	15	10	0	0	0	stim016_stimuli_original_vehicles_planes_4.png	Q	0	0	0	363.973981632385	364.173968271585
386.353	0.2	647	17	1	29	35	5	5	0	0	0	stim006_stimuli_original_animals_fish_2.png	F	0	0	0	364.373992701294	364.573993481463
388.186	0.2	648	18	0	46	0	9	8	0	0	0	stim010_stimuli_original_vehicles_boats_2.png	K	0	0	0	366.207376990817	366.407376552001
388.586	0.2	649	18	0	46	1	10	13	0	0	0	stim011_stimuli_original_vehicles_boats_3.png	U	0	0	0	366.607385865413	366.807382744737
388.986	0.2	650	18	0	46	2	6	5	0	0	0	stim007_stimuli_original_animals_fish_3.png	F	0	0	0	367.007391082938	367.207398689818
389.386	0.2	651	18	0	46	3	3	11	0	0	0	stim004_stimuli_original_animals_birds_4.png	R	0	0	0	367.407408734784	367.607406589319
389.786	0.2	652	18	0	46	4	1	12	0	0	0	stim002_stimuli_original_animals_birds_2.png	T	0	0	0	367.807414683746	368.007415951579
390.186	0.2	653	18	0	46	5	5	7	0	0	0	stim006_stimuli_original_animals_fish_2.png	J	0	0	0	368.207426240318	368.40742360719
390.587	0.2	654	18	0	46	6	8	15	0	0	0	stim009_stimuli_original_vehicles_boats_1.png	Y	0	0	0	368.607875678572	368.807419559918
390.986	0.2	655	18	0	46	7	15	9	0	0	0	stim016_stimuli_original_vehicles_planes_4.png	L	0	0	0	369.007448378252	369.207433310803
391.386	0.2	656	18	0	46	8	4	4	0	0	0	stim005_stimuli_original_animals_fish_1.png	E	0	0	0	369.407462616684	369.607437553117
391.786	0.2	657	18	0	46	9	14	13	0	1	0	stim015_stimuli_original_vehicles_planes_3.png	U	0	0	0	369.807441746583	370.007480073371
392.186	0.2	658	18	0	46	10	8	3	1	0	0	stim009_stimuli_original_vehicles_boats_1.png	D	0	0	0	370.207483291742	370.407490654732
392.586	0.2	659	18	0	46	11	0	13	0	1	0	stim001_stimuli_original_animals_birds_1.png	U	0	0	0	370.60749338544	370.807499285555
392.986	0.2	660	18	0	46	12	8	1	1	0	1	stim009_stimuli_original_vehicles_boats_1.png	B	NaN	371.000046567526	1	371.007489094394	371.207530346932
393.386	0.2	661	18	0	46	13	2	6	0	0	0	stim003_stimuli_original_animals_birds_3.png	G	0	0	0	371.407501382404	371.607518010191
393.786	0.2	662	18	0	46	14	7	10	0	0	0	stim008_stimuli_original_animals_fish_4.png	Q	0	0	0	371.807549997931	372.007534930599
394.186	0.2	663	18	0	46	15	11	2	0	0	0	stim012_stimuli_original_vehicles_boats_4.png	C	0	0	0	372.207542537362	372.407539172797
394.586	0.2	664	18	0	46	16	12	0	0	0	0	stim013_stimuli_original_vehicles_planes_1.png	A	0	0	0	372.607567747356	372.80753390654
394.986	0.2	665	18	0	46	17	13	14	0	0	0	stim014_stimuli_original_vehicles_planes_2.png	V	0	0	0	373.007560042897	373.207566430676
395.386	0.2	666	18	0	46	18	14	13	0	0	0	stim015_stimuli_original_vehicles_planes_3.png	U	0	0	0	373.407553313766	373.607571160654
395.786	0.2	667	18	0	46	19	0	12	0	0	0	stim001_stimuli_original_animals_birds_1.png	T	0	0	0	373.807581693167	374.007865779917
396.186	0.2	668	18	0	46	20	2	11	0	0	0	stim003_stimuli_original_animals_birds_3.png	R	0	0	0	374.207587154582	374.407578669954
396.586	0.2	669	18	0	46	21	10	7	0	0	0	stim011_stimuli_original_vehicles_boats_3.png	J	0	0	0	374.607617728179	374.807581449393
396.986	0.2	670	18	0	46	22	6	2	0	0	0	stim007_stimuli_original_animals_fish_3.png	C	0	0	0	375.007604903891	375.207611047896
397.386	0.2	671	18	0	46	23	1	8	0	1	0	stim002_stimuli_original_animals_birds_2.png	K	0	0	0	375.407615485135	375.607619434944
397.786	0.2	672	18	0	46	24	13	0	1	0	0	stim014_stimuli_original_vehicles_planes_2.png	A	0	0	0	375.807627529372	376.007632941939
398.186	0.2	673	18	0	46	25	3	8	0	1	0	stim004_stimuli_original_animals_birds_4.png	K	0	0	0	376.20763884217	376.407644986175
398.586	0.2	674	18	0	46	26	13	14	1	0	1	stim014_stimuli_original_vehicles_planes_2.png	V	0	0	0	376.607648935867	376.8076502037
398.986	0.2	675	18	0	46	27	4	4	0	0	0	stim005_stimuli_original_animals_fish_1.png	E	NaN	377.199424902326	1	377.007658785791	377.207664929796
399.386	0.2	676	18	0	46	28	9	15	0	0	0	stim010_stimuli_original_vehicles_boats_2.png	Y	0	0	0	377.407673024223	377.607671122532
399.786	0.2	677	18	0	46	29	15	8	0	0	0	stim016_stimuli_original_vehicles_planes_4.png	K	0	0	0	377.807663613115	378.007666831487
400.186	0.2	678	18	0	46	30	7	5	0	0	0	stim008_stimuli_original_animals_fish_4.png	F	0	0	0	378.207694674493	378.407693016576
400.586	0.2	679	18	0	46	31	12	1	0	0	0	stim013_stimuli_original_vehicles_planes_1.png	B	0	0	0	378.607703061542	378.807705060812
400.986	0.2	680	18	0	46	32	11	3	0	0	0	stim012_stimuli_original_vehicles_boats_4.png	D	0	0	0	379.007695113309	379.207715642056
401.386	0.2	681	18	0	46	33	5	6	0	0	0	stim006_stimuli_original_animals_fish_2.png	G	0	0	0	379.407703256584	379.607727442519
401.786	0.2	682	18	0	46	34	13	10	0	0	0	stim014_stimuli_original_vehicles_planes_2.png	Q	0	0	0	379.807714569382	380.007736073341
402.186	0.2	683	18	0	46	35	8	9	0	0	0	stim009_stimuli_original_vehicles_boats_1.png	L	0	0	0	380.207745630643	380.407749824226
405.336	0.2	684	19	1	12	0	7	9	0	0	0	stim008_stimuli_original_animals_fish_4.png	L	0	0	0	383.357823015773	383.55782550259
405.736	0.2	685	19	1	12	1	0	11	0	0	0	stim001_stimuli_original_animals_birds_1.png	R	0	0	0	383.757831646595	383.957840960124
406.137	0.2	686	19	1	12	2	11	5	0	0	0	stim012_stimuli_original_vehicles_boats_4.png	F	0	0	0	384.157851492753	384.357852516696
406.537	0.2	687	19	1	12	3	6	3	0	0	0	stim007_stimuli_original_animals_fish_3.png	D	0	0	0	384.557858904474	384.75785944087
406.936	0.2	688	19	1	12	4	5	15	0	0	0	stim006_stimuli_original_animals_fish_2.png	Y	0	0	0	384.957865097327	385.157865389832
407.337	0.2	689	19	1	12	5	14	0	0	0	0	stim015_stimuli_original_vehicles_planes_3.png	A	0	0	0	385.357877385337	385.557885723538
407.737	0.2	690	19	1	12	6	8	6	0	0	0	stim009_stimuli_original_vehicles_boats_1.png	G	0	0	0	385.75788699137	385.957891916274
408.137	0.2	691	19	1	12	7	4	8	0	0	0	stim005_stimuli_original_animals_fish_1.png	K	0	0	0	386.157898304169	386.357861781493
408.537	0.2	692	19	1	12	8	6	12	1	0	0	stim007_stimuli_original_animals_fish_3.png	T	0	0	0	386.557908885414	386.757908446598
408.937	0.2	693	19	1	12	9	15	1	0	0	0	stim016_stimuli_original_vehicles_planes_4.png	B	0	0	0	386.957921661087	387.157924391795
409.337	0.2	694	19	1	12	10	6	15	1	1	0	stim007_stimuli_original_animals_fish_3.png	Y	0	0	0	387.357929072925	387.557933754055
409.737	0.2	695	19	1	12	11	3	2	0	0	0	stim004_stimuli_original_animals_birds_4.png	C	0	0	0	387.757943799021	387.957940434455
410.137	0.2	696	19	1	12	12	10	15	0	1	1	stim011_stimuli_original_vehicles_boats_3.png	Y	0	0	0	388.157957793679	388.357954429113
410.537	0.2	697	19	1	12	13	13	7	0	0	0	stim014_stimuli_original_vehicles_planes_2.png	J	0	0	0	388.557957891142	388.757963547483
410.937	0.2	698	19	1	12	14	2	14	0	0	0	stim003_stimuli_original_animals_birds_3.png	V	NaN	389.149734101375	1	388.957969935378	389.158001923119
411.337	0.2	699	19	1	12	15	12	13	0	0	0	stim013_stimuli_original_vehicles_planes_1.png	U	0	0	0	389.357980760513	389.557986660628
411.737	0.2	700	19	1	12	16	1	4	0	0	0	stim002_stimuli_original_animals_birds_2.png	E	0	0	0	389.757991097984	389.957993584918
412.137	0.2	701	19	1	12	17	9	10	0	0	0	stim010_stimuli_original_vehicles_boats_2.png	Q	0	0	0	390.158004605095	390.358007091912
412.537	0.2	702	19	1	12	18	10	9	0	0	0	stim011_stimuli_original_vehicles_boats_3.png	L	0	0	0	390.558012748254	390.758027425618
412.937	0.2	703	19	1	12	19	4	1	0	0	0	stim005_stimuli_original_animals_fish_1.png	B	0	0	0	390.958022841951	391.158029229846
413.337	0.2	704	19	1	12	20	13	12	0	0	0	stim014_stimuli_original_vehicles_planes_2.png	T	0	0	0	391.358041712898	391.558037860668
413.737	0.2	705	19	1	12	21	14	2	0	0	0	stim015_stimuli_original_vehicles_planes_3.png	C	0	0	0	391.758043517009	391.958046491491
414.137	0.2	706	19	1	12	22	7	13	0	0	0	stim008_stimuli_original_animals_fish_4.png	U	0	0	0	392.158349839156	392.358067556634
414.537	0.2	707	19	1	12	23	15	10	1	0	0	stim016_stimuli_original_vehicles_planes_4.png	Q	0	0	0	392.558070774889	392.758066191338
414.937	0.2	708	19	1	12	24	2	3	0	0	0	stim003_stimuli_original_animals_birds_3.png	D	0	0	0	392.958077211515	393.158076772583
415.337	0.2	709	19	1	12	25	15	6	1	1	0	stim016_stimuli_original_vehicles_planes_4.png	G	0	0	0	393.358086330001	393.558087353944
415.737	0.2	710	19	1	12	26	1	15	0	0	0	stim002_stimuli_original_animals_birds_2.png	Y	0	0	0	393.758096667472	393.958102567703
416.137	0.2	711	19	1	12	27	12	6	0	1	1	stim013_stimuli_original_vehicles_planes_1.png	G	0	0	0	394.158108711708	394.35810876044
416.537	0.2	712	19	1	12	28	8	4	0	0	0	stim009_stimuli_original_vehicles_boats_1.png	E	0	0	0	394.558120999718	394.758125193184
416.937	0.2	713	19	1	12	29	6	8	0	0	0	stim007_stimuli_original_animals_fish_3.png	K	0	0	0	394.958126704791	395.158132605022
417.337	0.2	714	19	1	12	30	0	14	0	0	0	stim001_stimuli_original_animals_birds_1.png	V	0	0	0	395.358141187113	395.558147574891
417.737	0.2	715	19	1	12	31	15	5	0	0	0	stim016_stimuli_original_vehicles_planes_4.png	F	0	0	0	395.758150793146	395.958156693378
418.137	0.2	716	19	1	12	32	3	6	0	0	0	stim004_stimuli_original_animals_birds_4.png	G	0	0	0	396.158164787805	396.358167030849
418.537	0.2	717	19	1	12	33	5	11	0	0	0	stim006_stimuli_original_animals_fish_2.png	R	0	0	0	396.558178782463	396.758174198912
418.937	0.2	718	19	1	12	34	11	0	0	0	0	stim012_stimuli_original_vehicles_boats_4.png	A	0	0	0	396.958181561902	397.158185999258
419.337	0.2	719	19	1	12	35	9	7	0	0	0	stim010_stimuli_original_vehicles_boats_2.png	J	0	0	0	397.358192630927	397.558655429981
421.954	0.2	720	20	0	3	0	4	5	0	0	0	stim005_stimuli_original_animals_fish_1.png	F	0	0	0	399.974928344367	400.174931806512
422.354	0.2	721	20	0	3	1	11	7	0	0	0	stim012_stimuli_original_vehicles_boats_4.png	J	0	0	0	400.374937462853	400.574942875421
422.754	0.2	722	20	0	3	2	15	0	0	0	0	stim016_stimuli_original_vehicles_planes_4.png	A	0	0	0	400.774949994637	400.974951262469
423.154	0.2	723	20	0	3	3	13	12	0	0	0	stim014_stimuli_original_vehicles_planes_2.png	T	0	0	0	401.174958869349	401.374960137182
423.554	0.2	724	20	0	3	4	7	11	0	0	0	stim008_stimuli_original_animals_fish_4.png	R	0	0	0	401.574972376344	401.774974619388
423.954	0.2	725	20	0	3	5	9	6	0	0	0	stim010_stimuli_original_vehicles_boats_2.png	G	0	0	0	401.974981982494	402.174986663624
424.354	0.2	726	20	0	3	6	14	13	0	1	0	stim015_stimuli_original_vehicles_planes_3.png	U	0	0	0	402.374995001825	402.574993831571
424.754	0.2	727	20	0	3	7	8	2	0	0	0	stim009_stimuli_original_vehicles_boats_1.png	C	0	0	0	402.775001194677	402.975007582456
425.154	0.2	728	20	0	3	8	1	13	0	1	0	stim002_stimuli_original_animals_birds_2.png	U	0	0	0	403.175024697906	403.375008411356
425.554	0.2	729	20	0	3	9	9	10	1	0	0	stim010_stimuli_original_vehicles_boats_2.png	Q	0	0	0	403.575032597291	403.775045568007
425.954	0.2	730	20	0	3	10	0	1	0	0	0	stim001_stimuli_original_animals_birds_1.png	B	0	0	0	403.975042447215	404.175038107438
426.354	0.2	731	20	0	3	11	9	4	1	0	1	stim010_stimuli_original_vehicles_boats_2.png	E	0	0	0	404.375048883725	404.575495835277
426.754	0.2	732	20	0	3	12	10	3	0	0	0	stim011_stimuli_original_vehicles_boats_3.png	D	0	0	0	404.775042642257	404.975043422426
427.154	0.2	733	20	0	3	13	2	15	0	0	0	stim003_stimuli_original_animals_birds_3.png	Y	0	0	0	405.175068095909	405.375072045717
427.554	0.2	734	20	0	3	14	12	13	0	0	0	stim013_stimuli_original_vehicles_planes_1.png	U	0	0	0	405.575078433496	405.775091160322
427.954	0.2	735	20	0	3	15	3	8	0	0	0	stim004_stimuli_original_animals_birds_4.png	K	0	0	0	405.975091452943	406.175073459744
428.354	0.2	736	20	0	3	16	5	14	0	0	0	stim006_stimuli_original_animals_fish_2.png	V	0	0	0	406.375100327539	406.575104033458
428.754	0.2	737	20	0	3	17	6	9	0	0	0	stim007_stimuli_original_animals_fish_3.png	L	0	0	0	406.775112371775	406.975113151944
429.154	0.2	738	20	0	3	18	9	6	0	0	0	stim010_stimuli_original_vehicles_boats_2.png	G	0	0	0	407.175130754942	407.375110567547
429.554	0.2	739	20	0	3	19	14	5	0	0	0	stim015_stimuli_original_vehicles_planes_3.png	F	0	0	0	407.575134509592	407.775136265089
429.954	0.2	740	20	0	3	20	8	3	0	0	0	stim009_stimuli_original_vehicles_boats_1.png	D	0	0	0	407.975143384305	408.175127829309
430.354	0.2	741	20	0	3	21	13	12	0	0	0	stim014_stimuli_original_vehicles_planes_2.png	T	0	0	0	408.375138118048	408.575163035304
430.754	0.2	742	20	0	3	22	15	2	0	0	0	stim016_stimuli_original_vehicles_planes_4.png	C	0	0	0	408.775162840262	408.975150698563
431.154	0.2	743	20	0	3	23	3	10	0	0	0	stim004_stimuli_original_animals_birds_4.png	Q	0	0	0	409.17517317785	409.375179321854
431.554	0.2	744	20	0	3	24	4	9	0	1	0	stim005_stimuli_original_animals_fish_1.png	L	0	0	0	409.575187172508	409.775186246028
431.954	0.2	745	20	0	3	25	1	0	0	0	0	stim002_stimuli_original_animals_birds_2.png	A	0	0	0	409.975171666243	410.175184880616
432.354	0.2	746	20	0	3	26	10	9	0	1	0	stim011_stimuli_original_vehicles_boats_3.png	L	0	0	0	410.375199070433	410.575214966782
432.754	0.2	747	20	0	3	27	13	1	1	0	0	stim014_stimuli_original_vehicles_planes_2.png	B	0	0	0	410.775216478389	410.975220184308
433.154	0.2	748	20	0	3	28	2	8	0	0	0	stim003_stimuli_original_animals_birds_3.png	K	0	0	0	411.175223890226	411.375229302794
433.554	0.2	749	20	0	3	29	13	14	1	0	1	stim014_stimuli_original_vehicles_planes_2.png	V	0	0	0	411.575242761057	411.775246954523
433.954	0.2	750	20	0	3	30	6	9	0	0	0	stim007_stimuli_original_animals_fish_3.png	L	0	0	0	411.975233593839	412.175236568321
434.354	0.2	751	20	0	3	31	11	7	0	0	0	stim012_stimuli_original_vehicles_boats_4.png	J	0	0	0	412.375257828506	412.575267629582
434.754	0.2	752	20	0	3	32	12	13	0	0	0	stim013_stimuli_original_vehicles_planes_1.png	U	0	0	0	412.77527426125	412.975270165247
435.154	0.2	753	20	0	3	33	0	15	0	0	0	stim001_stimuli_original_animals_birds_1.png	Y	0	0	0	413.1752780159	413.375267337076
435.554	0.2	754	20	0	3	34	7	11	0	0	0	stim008_stimuli_original_animals_fish_4.png	R	0	0	0	413.57529566763	413.775305956486
435.954	0.2	755	20	0	3	35	5	4	0	0	0	stim006_stimuli_original_animals_fish_2.png	E	0	0	0	413.975285037537	414.175303859636
439.871	0.2	756	21	1	46	0	9	8	0	0	0	stim010_stimuli_original_vehicles_boats_2.png	K	0	0	0	417.892079216545	418.092063905322
440.271	0.2	757	21	1	46	1	10	13	0	0	0	stim011_stimuli_original_vehicles_boats_3.png	U	0	0	0	418.292072731303	418.492091797176
440.671	0.2	758	21	1	46	2	6	5	0	0	0	stim007_stimuli_original_animals_fish_3.png	F	0	0	0	418.69209696597	418.892081654631
441.071	0.2	759	21	1	46	3	3	11	0	0	0	stim004_stimuli_original_animals_birds_4.png	R	0	0	0	419.092089749174	419.292111009359
441.471	0.2	760	21	1	46	4	1	12	0	0	0	stim002_stimuli_original_animals_birds_2.png	T	0	0	0	419.49211959145	419.692120127846
441.871	0.2	761	21	1	46	5	5	7	0	0	0	stim006_stimuli_original_animals_fish_2.png	J	0	0	0	419.892111643218	420.09213656059
442.271	0.2	762	21	1	46	6	8	15	0	0	0	stim009_stimuli_original_vehicles_boats_1.png	Y	0	0	0	420.292144655017	420.492125686607
442.671	0.2	763	21	1	46	7	15	9	0	0	0	stim016_stimuli_original_vehicles_planes_4.png	L	0	0	0	420.692166939261	420.892153090797
443.071	0.2	764	21	1	46	8	4	4	0	0	0	stim005_stimuli_original_animals_fish_1.png	E	0	0	0	421.092148994794	421.292162940721
443.471	0.2	765	21	1	46	9	14	13	0	1	0	stim015_stimuli_original_vehicles_planes_3.png	U	0	0	0	421.492154456209	421.692149628769
443.871	0.2	766	21	1	46	10	8	3	1	0	0	stim009_stimuli_original_vehicles_boats_1.png	D	0	0	0	421.892156504211	422.092178251944
444.271	0.2	767	21	1	46	11	0	13	0	1	1	stim001_stimuli_original_animals_birds_1.png	U	0	0	0	422.292173912167	422.492170547601
444.671	0.2	768	21	1	46	12	8	1	1	0	0	stim009_stimuli_original_vehicles_boats_1.png	B	0	0	0	422.692177423043	422.892183079384
445.071	0.2	769	21	1	46	13	2	6	0	0	0	stim003_stimuli_original_animals_birds_3.png	G	0	0	0	423.092185810092	423.292195611168
445.471	0.2	770	21	1	46	14	7	10	0	0	0	stim008_stimuli_original_animals_fish_4.png	Q	0	0	0	423.492471652222	423.692229354405
445.871	0.2	771	21	1	46	15	11	2	0	0	0	stim012_stimuli_original_vehicles_boats_4.png	C	0	0	0	423.89223281655	424.09221384814
446.271	0.2	772	21	1	46	16	12	0	0	0	0	stim013_stimuli_original_vehicles_planes_1.png	A	0	0	0	424.292244616896	424.492241739994
446.671	0.2	773	21	1	46	17	13	14	0	0	0	stim014_stimuli_original_vehicles_planes_2.png	V	0	0	0	424.692235693452	424.892235254636
447.071	0.2	774	21	1	46	18	14	13	0	0	0	stim015_stimuli_original_vehicles_planes_3.png	U	0	0	0	425.092259196681	425.2922629026
447.471	0.2	775	21	1	46	19	0	12	0	0	0	stim001_stimuli_original_animals_birds_1.png	T	0	0	0	425.492274410441	425.692282992532
447.871	0.2	776	21	1	46	20	2	11	0	0	0	stim003_stimuli_original_animals_birds_3.png	R	0	0	0	425.892283528927	426.092266023392
448.271	0.2	777	21	1	46	21	10	7	0	0	0	stim011_stimuli_original_vehicles_boats_3.png	J	0	0	0	426.292291672085	426.492295865668
448.671	0.2	778	21	1	46	22	6	2	0	0	0	stim007_stimuli_original_animals_fish_3.png	C	0	0	0	426.692293720087	426.892304252717
449.071	0.2	779	21	1	46	23	1	8	0	1	0	stim002_stimuli_original_animals_birds_2.png	K	0	0	0	427.092295524315	427.2923167845
449.471	0.2	780	21	1	46	24	13	0	1	0	0	stim014_stimuli_original_vehicles_planes_2.png	A	0	0	0	427.492307568551	427.692325659213
449.871	0.2	781	21	1	46	25	3	8	0	1	1	stim004_stimuli_original_animals_birds_4.png	K	0	0	0	427.892332534539	428.092339409981
450.271	0.2	782	21	1	46	26	13	14	1	0	0	stim014_stimuli_original_vehicles_planes_2.png	V	NaN	428.284895956749	1	428.292345310212	428.492347065592
450.671	0.2	783	21	1	46	27	4	4	0	0	0	stim005_stimuli_original_animals_fish_1.png	E	0	0	0	428.692358817207	428.892766271601
451.071	0.2	784	21	1	46	28	9	15	0	0	0	stim010_stimuli_original_vehicles_boats_2.png	Y	0	0	0	429.092367691919	429.292372129275
451.471	0.2	785	21	1	46	29	15	8	0	0	0	stim016_stimuli_original_vehicles_planes_4.png	K	0	0	0	429.492375591304	429.692379297223
451.871	0.2	786	21	1	46	30	7	5	0	0	0	stim008_stimuli_original_animals_fish_4.png	F	0	0	0	429.892369837384	430.092389147147
452.271	0.2	787	21	1	46	31	12	1	0	0	0	stim013_stimuli_original_vehicles_planes_1.png	B	0	0	0	430.292398948222	430.492400216055
452.671	0.2	788	21	1	46	32	11	3	0	0	0	stim012_stimuli_original_vehicles_boats_4.png	D	0	0	0	430.692393438192	430.892392267939
453.071	0.2	789	21	1	46	33	5	6	0	0	0	stim006_stimuli_original_animals_fish_2.png	G	0	0	0	431.092401337577	431.292404555948
453.471	0.2	790	21	1	46	34	13	10	0	0	0	stim014_stimuli_original_vehicles_planes_2.png	Q	0	0	0	431.49242825422	431.692432203912
453.871	0.2	791	21	1	46	35	8	9	0	0	0	stim009_stimuli_original_vehicles_boats_1.png	L	0	0	0	431.892440786003	432.092424499453
457.671	0.2	792	22	0	17	0	14	6	0	0	0	stim015_stimuli_original_vehicles_planes_3.png	G	0	0	0	435.6925641048	435.892550256453
458.071	0.2	793	22	0	17	1	2	14	0	0	0	stim003_stimuli_original_animals_birds_3.png	V	0	0	0	436.092538602301	436.292556205415
458.471	0.2	794	22	0	17	2	6	5	0	0	0	stim007_stimuli_original_animals_fish_3.png	F	0	0	0	436.492567225592	436.692571662832
458.871	0.2	795	22	0	17	3	0	2	0	0	0	stim001_stimuli_original_animals_birds_1.png	C	0	0	0	436.892563665984	437.093102777377
459.271	0.2	796	22	0	17	4	4	12	0	0	0	stim005_stimuli_original_animals_fish_1.png	T	0	0	0	437.292588388198	437.492592337891
459.671	0.2	797	22	0	17	5	7	15	0	0	0	stim008_stimuli_original_animals_fish_4.png	Y	0	0	0	437.692600432434	437.892555132625
460.071	0.2	798	22	0	17	6	8	9	0	0	0	stim009_stimuli_original_vehicles_boats_1.png	L	0	0	0	438.092589802342	438.292594483471
460.471	0.2	799	22	0	17	7	5	4	1	1	0	stim006_stimuli_original_animals_fish_2.png	E	0	0	0	438.492620376055	438.692629689584
460.871	0.2	800	22	0	17	8	3	13	0	0	0	stim004_stimuli_original_animals_birds_4.png	U	0	0	0	438.892632907839	439.092614670866
461.271	0.2	801	22	0	17	9	5	4	1	1	1	stim006_stimuli_original_animals_fish_2.png	E	0	0	0	439.292647390044	439.492642075056
