onset	duration	eventnumber	sequencenumber	condition	streamnumber	stimnumber	objectstimnumber	letterstimnumber	objecttarget	lettertarget	is2back	objectstim	letterstim	response	rt	correct	time_stimon	time_stimoff
11878.25	100	0	0	0	2	0	14	14	0	0	0	stim015_stimuli_original_vehicles_planes_3.png	V	0	0	0	22.378300813958	22.5782876969315
11978.5	100	1	0	0	2	1	12	12	0	0	0	stim013_stimuli_original_vehicles_planes_1.png	T	0	0	0	22.7790837832727	22.9782943772152
12078.25	100	2	0	0	2	2	3	10	0	0	0	stim004_stimuli_original_animals_birds_4.png	Q	0	0	0	23.178293694742	23.378298131749
12178.25	100	3	0	0	2	3	6	5	0	0	0	stim007_stimuli_original_animals_fish_3.png	F	0	0	0	23.5783176855184	23.7783321188763
12278.25	100	4	0	0	2	4	15	15	0	0	0	stim016_stimuli_original_vehicles_planes_4.png	Y	0	0	0	23.9783385065384	24.1783195384778
12378.25	100	5	0	0	2	5	5	2	0	0	0	stim006_stimuli_original_animals_fish_2.png	C	0	0	0	24.3783261701465	24.5783274378628
12478.25	100	6	0	0	2	6	7	1	0	0	0	stim008_stimuli_original_animals_fish_4.png	B	0	0	0	24.7783352886327	24.9783758097328
12578.25	100	7	0	0	2	7	13	0	0	0	0	stim014_stimuli_original_vehicles_planes_2.png	A	f	25.3701417311095	0	25.1783775649965	25.3783595720306
12678.25	100	8	0	0	2	8	2	6	1	1	0	stim003_stimuli_original_animals_birds_3.png	G	0	0	0	25.5783666912466	25.778390145395
12778.25	100	9	0	0	2	9	1	11	0	0	0	stim002_stimuli_original_animals_birds_2.png	R	0	0	0	25.9783775163814	26.1783678126521
12878.25	100	10	0	0	2	10	2	6	1	1	1	stim003_stimuli_original_animals_birds_3.png	G	0	0	0	26.3783732252195	26.5783752244897
12978.25	100	11	0	0	2	11	0	9	0	0	0	stim001_stimuli_original_animals_birds_1.png	L	0	0	0	26.778381368611	26.9783958019689
13078.25	100	12	0	0	2	12	8	4	0	0	0	stim009_stimuli_original_vehicles_boats_1.png	E	f	27.3839652384631	1	27.1783968261443	27.3783978498541
13178.25	100	13	0	0	2	13	9	6	0	0	0	stim010_stimuli_original_vehicles_boats_2.png	G	0	0	0	27.5784103330225	27.7784406142309
13278.25	100	14	0	0	2	14	10	13	0	0	0	stim011_stimuli_original_vehicles_boats_3.png	U	0	0	0	27.9784516342916	28.1784511953592
13378.25	100	15	0	0	2	15	4	7	0	0	0	stim005_stimuli_original_animals_fish_1.png	J	0	0	0	28.3784293015487	28.5784278875217
13478.25	100	16	0	0	2	16	11	3	0	0	0	stim012_stimuli_original_vehicles_boats_4.png	D	0	0	0	28.7784362253733	28.9784379811026
13578.25	100	17	0	0	2	17	2	8	0	0	0	stim003_stimuli_original_animals_birds_3.png	K	0	0	0	29.1784465629607	29.3784510004334
13678.25	100	18	0	0	2	18	8	2	0	0	0	stim009_stimuli_original_vehicles_boats_1.png	C	0	0	0	29.578462020494	29.7784598749131
13778.25	100	19	0	0	2	19	3	11	0	0	0	stim004_stimuli_original_animals_birds_4.png	R	0	0	0	29.9785047848709	30.1785011766478
13878.25	100	20	0	0	2	20	7	4	0	0	0	stim008_stimuli_original_animals_fish_4.png	E	0	0	0	30.3785000061616	30.5785046871752
13978.25	100	21	0	0	2	21	13	10	0	0	0	stim014_stimuli_original_vehicles_planes_2.png	Q	0	0	0	30.7785127819516	30.9785230704583
14078.25	100	22	0	0	2	22	6	9	0	0	0	stim007_stimuli_original_animals_fish_3.png	L	0	0	0	31.1785028832965	31.3785031754524
14178.25	100	23	0	0	2	23	4	8	0	0	0	stim005_stimuli_original_animals_fish_1.png	K	0	0	0	31.5785115137696	31.7785344808362
14278.25	100	24	0	0	2	24	9	0	0	0	0	stim010_stimuli_original_vehicles_boats_2.png	A	0	0	0	31.9785216078162	32.1785262888297
14378.25	100	25	0	0	2	25	6	2	1	1	0	stim007_stimuli_original_animals_fish_3.png	C	0	0	0	32.3785614459775	32.5785678341053
14478.25	100	26	0	0	2	26	11	1	0	0	0	stim012_stimuli_original_vehicles_boats_4.png	B	0	0	0	32.7785722711124	32.978549645748
14578.25	100	27	0	0	2	27	6	2	1	1	1	stim007_stimuli_original_animals_fish_3.png	C	0	0	0	33.1785874851048	33.3785855830647
14678.25	100	28	0	0	2	28	0	13	0	0	0	stim001_stimuli_original_animals_birds_1.png	U	f	33.7703329753131	1	33.5785671025515	33.778596652206
14778.25	100	29	0	0	2	29	1	7	0	0	0	stim002_stimuli_original_animals_birds_2.png	J	0	0	0	33.9786045029759	34.1785818771459
14878.25	100	30	0	0	2	30	2	5	0	0	0	stim003_stimuli_original_animals_birds_3.png	F	0	0	0	34.3785904594697	34.5785924587399
14978.25	100	31	0	0	2	31	15	15	0	0	0	stim016_stimuli_original_vehicles_planes_4.png	Y	0	0	0	34.7785956771113	34.9786001141183
15078.25	100	32	0	0	2	32	5	6	0	0	0	stim006_stimuli_original_animals_fish_2.png	G	0	0	0	35.178611622192	35.3786145965569
15178.25	100	33	0	0	2	33	10	3	0	0	0	stim011_stimuli_original_vehicles_boats_3.png	D	0	0	0	35.5786468279548	35.7786376122385
15278.25	100	34	0	0	2	34	12	12	0	0	0	stim013_stimuli_original_vehicles_planes_1.png	T	0	0	0	35.9786476572044	36.1786640412174
15378.25	100	35	0	0	2	35	14	14	0	0	0	stim015_stimuli_original_vehicles_planes_3.png	V	0	0	0	36.3786562881432	36.5786743788049
16524.25	100	36	1	1	13	0	14	10	0	0	0	stim015_stimuli_original_vehicles_planes_3.png	Q	0	0	0	40.9621073813178	41.1621110872366
16624.25	100	37	1	1	13	1	6	15	0	0	0	stim007_stimuli_original_animals_fish_3.png	Y	0	0	0	41.3621060159057	41.5621394664049
16724.25	100	38	1	1	13	2	1	13	0	0	0	stim002_stimuli_original_animals_birds_2.png	U	0	0	0	41.7621187916957	41.9623053544201
16824.25	100	39	1	1	13	3	2	5	0	0	0	stim003_stimuli_original_animals_birds_3.png	F	0	0	0	42.162158629857	42.3621601415798
16924.25	100	40	1	1	13	4	5	2	0	0	0	stim006_stimuli_original_animals_fish_2.png	C	0	0	0	42.5621675048023	42.7621334199794
17024.25	100	41	1	1	13	5	9	1	1	0	0	stim010_stimuli_original_vehicles_boats_2.png	B	0	0	0	42.9621461471543	43.1621686262079
17124.25	100	42	1	1	13	6	0	14	0	0	0	stim001_stimuli_original_animals_birds_1.png	V	0	0	0	43.3621676997282	43.5621616533026
17224.25	100	43	1	1	13	7	9	9	1	0	0	stim010_stimuli_original_vehicles_boats_2.png	L	0	0	0	43.7621753555723	43.9621641887352
17324.25	100	44	1	1	13	8	3	12	0	0	0	stim004_stimuli_original_animals_birds_4.png	T	d	44.3623832273297	0	44.162222020328	44.3621915932745
17424.25	100	45	1	1	13	9	12	7	0	0	0	stim013_stimuli_original_vehicles_planes_1.png	J	0	0	0	44.562205539085	44.7622075383551
17524.25	100	46	1	1	13	10	8	1	0	1	0	stim009_stimuli_original_vehicles_boats_1.png	B	0	0	0	44.9622314800508	45.1622417690232
17624.25	100	47	1	1	13	11	13	11	0	0	0	stim014_stimuli_original_vehicles_planes_2.png	R	0	0	0	45.3622418176383	45.5622208989225
17724.25	100	48	1	1	13	12	9	1	0	1	1	stim010_stimuli_original_vehicles_boats_2.png	B	0	0	0	45.7622282621451	45.9622587868944
17824.25	100	49	1	1	13	13	4	8	0	0	0	stim005_stimuli_original_animals_fish_1.png	K	d	46.3624307699502	1	46.1622517653741	46.3622496197931
17924.25	100	50	1	1	13	14	11	3	0	0	0	stim012_stimuli_original_vehicles_boats_4.png	D	0	0	0	46.5622567390092	46.762248985935
18024.25	100	51	1	1	13	15	7	0	0	0	0	stim008_stimuli_original_animals_fish_4.png	A	0	0	0	46.9622565926984	47.1622512778267
18124.25	100	52	1	1	13	16	10	6	0	0	0	stim011_stimuli_original_vehicles_boats_3.png	G	0	0	0	47.3623000881635	47.5622974550352
18224.25	100	53	1	1	13	17	15	4	0	0	0	stim016_stimuli_original_vehicles_planes_4.png	E	0	0	0	47.7622887268662	47.9622902381234
18324.25	100	54	1	1	13	18	4	15	0	0	0	stim005_stimuli_original_animals_fish_1.png	Y	0	0	0	48.1623024777509	48.3623191053048
18424.25	100	55	1	1	13	19	6	10	0	0	0	stim007_stimuli_original_animals_fish_3.png	Q	0	0	0	48.5622928226367	48.7623272486962
18524.25	100	56	1	1	13	20	0	7	0	0	0	stim001_stimuli_original_animals_birds_1.png	J	0	0	0	48.9623346114531	49.1623195442371
18624.25	100	57	1	1	13	21	3	11	0	0	0	stim004_stimuli_original_animals_birds_4.png	R	0	0	0	49.3623212995008	49.5623237863183
18724.25	100	58	1	1	13	22	8	4	0	0	0	stim009_stimuli_original_vehicles_boats_1.png	E	0	0	0	49.762348216027	49.9623360745609
18824.25	100	59	1	1	13	23	1	9	1	0	0	stim002_stimuli_original_animals_birds_2.png	L	0	0	0	50.1623709881678	50.362351775635
18924.25	100	60	1	1	13	24	11	13	0	0	0	stim012_stimuli_original_vehicles_boats_4.png	U	0	0	0	50.5623652338982	50.7623604065739
19024.25	100	61	1	1	13	25	1	8	1	0	0	stim002_stimuli_original_animals_birds_2.png	K	0	0	0	50.9623872744851	51.1624119482003
19124.25	100	62	1	1	13	26	7	12	0	0	0	stim008_stimuli_original_animals_fish_4.png	T	0	0	0	51.3623998062685	51.5624061939307
19224.25	100	63	1	1	13	27	12	3	0	0	0	stim013_stimuli_original_vehicles_planes_1.png	D	0	0	0	51.7624069740996	51.962398733478
19324.25	100	64	1	1	13	28	9	9	0	1	0	stim010_stimuli_original_vehicles_boats_2.png	L	0	0	0	52.1624217005447	52.3624100461602
19424.25	100	65	1	1	13	29	14	0	0	0	0	stim015_stimuli_original_vehicles_planes_3.png	A	0	0	0	52.562690963503	52.7624150197953
19524.25	100	66	1	1	13	30	1	9	0	1	1	stim002_stimuli_original_animals_birds_2.png	L	0	0	0	52.9624162879772	53.1624175556935
19624.25	100	67	1	1	13	31	2	5	0	0	0	stim003_stimuli_original_animals_birds_3.png	F	0	0	0	53.3624229682609	53.5624388647266
19724.25	100	68	1	1	13	32	5	2	0	0	0	stim006_stimuli_original_animals_fish_2.png	C	0	0	0	53.762432330288	53.9624401810579
19824.25	100	69	1	1	13	33	13	1	0	0	0	stim014_stimuli_original_vehicles_planes_2.png	B	0	0	0	54.1624436434358	54.3624461302534
19924.25	100	70	1	1	13	34	15	6	0	0	0	stim016_stimuli_original_vehicles_planes_4.png	G	0	0	0	54.5624554436654	54.7624606122263
20024.25	100	71	1	1	13	35	10	14	0	0	0	stim011_stimuli_original_vehicles_boats_3.png	V	0	0	0	54.9624718762934	55.1624950869009
20657.5	100	72	2	0	43	0	15	5	0	0	0	stim016_stimuli_original_vehicles_planes_4.png	F	0	0	0	57.4958754754625	57.6958760120906
20757.5	100	73	2	0	43	1	14	11	0	0	0	stim015_stimuli_original_vehicles_planes_3.png	R	0	0	0	57.895906293299	58.0959060979076
20857.5	100	74	2	0	43	2	6	4	0	0	0	stim007_stimuli_original_animals_fish_3.png	E	0	0	0	58.29591638688	58.4959181421436
20957.75	100	75	2	0	43	3	7	0	0	0	0	stim008_stimuli_original_animals_fish_4.png	A	0	0	0	58.695923554711	58.895929211285
21057.75	100	76	2	0	43	4	1	2	0	0	0	stim002_stimuli_original_animals_birds_2.png	C	0	0	0	59.0959416944534	59.2959393048659
21157.75	100	77	2	0	43	5	0	12	0	1	0	stim001_stimuli_original_animals_birds_1.png	T	0	0	0	59.4959508124739	59.6959294062108
21257.75	100	78	2	0	43	6	5	10	0	0	0	stim006_stimuli_original_animals_fish_2.png	Q	0	0	0	59.895931405481	60.095938524697
21357.75	100	79	2	0	43	7	9	12	0	1	0	stim010_stimuli_original_vehicles_boats_2.png	T	0	0	0	60.2959444248118	60.4959495938383
21457.75	100	80	2	0	43	8	1	7	1	0	0	stim002_stimuli_original_animals_birds_2.png	J	0	0	0	60.6959606138989	60.8959816303104
21557.75	100	81	2	0	43	9	8	6	0	0	0	stim009_stimuli_original_vehicles_boats_1.png	G	0	0	0	61.0959904561751	61.2959926989861
21657.75	100	82	2	0	43	10	1	8	1	0	1	stim002_stimuli_original_animals_birds_2.png	K	d	61.6877491120249	1	61.4959847023711	61.6959788994864
21757.75	100	83	2	0	43	11	11	12	0	0	0	stim012_stimuli_original_vehicles_boats_4.png	T	0	0	0	61.8960025976412	62.0959936254658
21857.75	100	84	2	0	43	12	10	1	0	0	0	stim011_stimuli_original_vehicles_boats_3.png	B	0	0	0	62.2959970878437	62.4960003062151
21957.75	100	85	2	0	43	13	13	3	0	0	0	stim014_stimuli_original_vehicles_planes_2.png	D	0	0	0	62.6960052307695	62.8960108873434
22057.75	100	86	2	0	43	14	4	9	0	0	0	stim005_stimuli_original_animals_fish_1.png	L	0	0	0	63.096042631194	63.2960412171669
22157.75	100	87	2	0	43	15	2	13	0	0	0	stim003_stimuli_original_animals_birds_3.png	U	0	0	0	63.4960398031399	63.6960381451063
22257.75	100	88	2	0	43	16	3	14	0	0	0	stim004_stimuli_original_animals_birds_4.png	V	0	0	0	63.8960477025248	64.0960467760451
22357.75	100	89	2	0	43	17	12	15	0	0	0	stim013_stimuli_original_vehicles_planes_1.png	Y	0	0	0	64.2960538952611	64.4960756432265
22457.75	100	90	2	0	43	18	15	12	0	0	0	stim016_stimuli_original_vehicles_planes_4.png	T	0	0	0	64.696232705377	64.8960932949558
22557.75	100	91	2	0	43	19	14	3	0	0	0	stim015_stimuli_original_vehicles_planes_3.png	D	0	0	0	65.0960726197809	65.2960814456455
22657.75	100	92	2	0	43	20	13	2	0	0	0	stim014_stimuli_original_vehicles_planes_2.png	C	d	65.4886487200856	0	65.4960778374225	65.6960910516791
22757.75	100	93	2	0	43	21	9	4	0	0	0	stim010_stimuli_original_vehicles_boats_2.png	E	0	0	0	65.8961162129417	66.0960989515297
22857.75	100	94	2	0	43	22	3	13	0	0	0	stim004_stimuli_original_animals_birds_4.png	U	0	0	0	66.296125087887	66.4961263556033
22957.75	100	95	2	0	43	23	1	10	0	0	0	stim002_stimuli_original_animals_birds_2.png	Q	0	0	0	66.6961207967252	66.896140106488
23057.75	100	96	2	0	43	24	12	11	0	0	0	stim013_stimuli_original_vehicles_planes_1.png	R	0	0	0	67.0961460066028	67.2961528818123
23157.75	100	97	2	0	43	25	8	1	0	1	0	stim009_stimuli_original_vehicles_boats_1.png	B	0	0	0	67.4961385461502	67.696162244305
23257.75	100	98	2	0	43	26	6	8	0	0	0	stim007_stimuli_original_animals_fish_3.png	K	0	0	0	67.8961501023732	68.0961525891908
23357.75	100	99	2	0	43	27	7	1	0	1	0	stim008_stimuli_original_animals_fish_4.png	B	0	0	0	68.2961594648659	68.4961561001837
23457.75	100	100	2	0	43	28	12	9	1	0	0	stim013_stimuli_original_vehicles_planes_1.png	L	0	0	0	68.6961612692103	68.8961649751291
23557.75	100	101	2	0	43	29	10	5	0	0	0	stim011_stimuli_original_vehicles_boats_3.png	F	0	0	0	69.0961806275882	69.2961887218989
23657.75	100	102	2	0	43	30	12	0	1	0	1	stim013_stimuli_original_vehicles_planes_1.png	A	0	0	0	69.4962026677094	69.6962139317766
23757.75	100	103	2	0	43	31	2	1	0	0	0	stim003_stimuli_original_animals_birds_3.png	B	0	0	0	69.8962073978037	70.0966204595752
23857.75	100	104	2	0	43	32	0	7	0	0	0	stim001_stimuli_original_animals_birds_1.png	J	d	70.2888295780867	1	70.296211396344	70.4962126640603
23957.75	100	105	2	0	43	33	4	6	0	0	0	stim005_stimuli_original_animals_fish_1.png	G	0	0	0	70.6962190517224	70.8962198318914
24057.75	100	106	2	0	43	34	11	14	0	0	0	stim012_stimuli_original_vehicles_boats_4.png	V	0	0	0	71.0962274391204	71.296229925938
24157.75	100	107	2	0	43	35	5	15	0	0	0	stim006_stimuli_original_animals_fish_2.png	Y	0	0	0	71.496227780357	71.6962646441534
25082.75	100	108	3	1	16	0	14	8	0	0	0	stim015_stimuli_original_vehicles_planes_3.png	K	0	0	0	75.1963343736716	75.3963285712525
25182.75	100	109	3	1	16	1	5	3	0	0	0	stim006_stimuli_original_animals_fish_2.png	D	0	0	0	75.5963461739011	75.7963498798199
25282.75	100	110	3	1	16	2	13	11	0	0	0	stim014_stimuli_original_vehicles_planes_2.png	R	0	0	0	75.9963616314344	76.1963480268605
25382.75	100	111	3	1	16	3	10	7	0	0	0	stim011_stimuli_original_vehicles_boats_3.png	J	0	0	0	76.3963539274409	76.5963593400083
25482.75	100	112	3	1	16	4	1	12	0	0	0	stim002_stimuli_original_animals_birds_2.png	T	0	0	0	76.7964218039997	76.9964084429666
25582.75	100	113	3	1	16	5	2	4	0	0	0	stim003_stimuli_original_animals_birds_3.png	E	0	0	0	77.1963963015005	77.3963997634128
25682.75	100	114	3	1	16	6	9	9	0	1	0	stim010_stimuli_original_vehicles_boats_2.png	L	0	0	0	77.5964222424664	77.7964317998849
25782.75	100	115	3	1	16	7	7	6	0	0	0	stim008_stimuli_original_animals_fish_4.png	G	0	0	0	77.9968156046234	78.1964267776348
25882.75	100	116	3	1	16	8	6	9	0	1	1	stim007_stimuli_original_animals_fish_3.png	L	0	0	0	78.3964463309385	78.5964497933164
25982.75	100	117	3	1	16	9	9	0	1	0	0	stim010_stimuli_original_vehicles_boats_2.png	A	0	0	0	78.7964583751746	78.9964601304382
26082.75	100	118	3	1	16	10	15	5	0	0	0	stim016_stimuli_original_vehicles_planes_4.png	F	d	79.3966425973922	1	79.1964643239044	79.3964541330934
26182.75	100	119	3	1	16	11	9	13	1	0	0	stim010_stimuli_original_vehicles_boats_2.png	U	0	0	0	79.5964775872417	79.796481537167
26282.75	100	120	3	1	16	12	0	15	0	0	0	stim001_stimuli_original_animals_birds_1.png	Y	0	0	0	79.9964874372818	80.1964748078026
26382.75	100	121	3	1	16	13	8	2	0	0	0	stim009_stimuli_original_vehicles_boats_1.png	C	0	0	0	80.3965004566126	80.5965195223689
26482.75	100	122	3	1	16	14	4	14	0	0	0	stim005_stimuli_original_animals_fish_1.png	V	0	0	0	80.7964900704101	80.9964910945855
26582.75	100	123	3	1	16	15	3	9	0	0	0	stim004_stimuli_original_animals_birds_4.png	L	0	0	0	81.1964921182953	81.3965202053078
26682.75	100	124	3	1	16	16	11	1	0	0	0	stim012_stimuli_original_vehicles_boats_4.png	B	0	0	0	81.5965117206797	81.7965088435449
26782.75	100	125	3	1	16	17	12	10	0	0	0	stim013_stimuli_original_vehicles_planes_1.png	Q	0	0	0	81.9965301039629	82.1965201566927
26882.75	100	126	3	1	16	18	10	12	0	0	0	stim011_stimuli_original_vehicles_boats_3.png	T	0	0	0	82.396521424409	82.5965261054225
26982.75	100	127	3	1	16	19	1	11	0	0	0	stim002_stimuli_original_animals_birds_2.png	R	0	0	0	82.7965451711789	82.9965466829017
27082.75	100	128	3	1	16	20	9	3	0	0	0	stim010_stimuli_original_vehicles_boats_2.png	D	0	0	0	83.1965462439694	83.3967015994713
27182.75	100	129	3	1	16	21	14	4	0	0	0	stim015_stimuli_original_vehicles_planes_3.png	E	0	0	0	83.5965580446646	83.7965615065768
27282.75	100	130	3	1	16	22	2	8	0	0	0	stim003_stimuli_original_animals_birds_3.png	K	d	83.9891699845903	0	83.9965956886299	84.1965789147653
27382.75	100	131	3	1	16	23	15	0	0	0	0	stim016_stimuli_original_vehicles_planes_4.png	A	0	0	0	84.3965933481231	84.5965977855958
27482.75	100	132	3	1	16	24	13	9	0	1	0	stim014_stimuli_original_vehicles_planes_2.png	L	0	0	0	84.7966036857106	84.9966071476229
27582.75	100	133	3	1	16	25	5	15	0	0	0	stim006_stimuli_original_animals_fish_2.png	Y	0	0	0	85.1966132917441	85.3966174852103
27682.75	100	134	3	1	16	26	0	9	0	1	1	stim001_stimuli_original_animals_birds_1.png	L	0	0	0	85.5966277741827	85.7966153882444
27782.75	100	135	3	1	16	27	9	6	1	0	0	stim010_stimuli_original_vehicles_boats_2.png	G	0	0	0	85.996647620108	86.1966479127295
27882.75	100	136	3	1	16	28	6	7	0	0	0	stim007_stimuli_original_animals_fish_3.png	J	0	0	0	86.3966243118048	86.5966389891692
27982.75	100	137	3	1	16	29	9	9	1	0	0	stim010_stimuli_original_vehicles_boats_2.png	L	0	0	0	86.7966487901285	86.9966490827501
28082.75	100	138	3	1	16	30	4	2	0	0	0	stim005_stimuli_original_animals_fish_1.png	C	d	87.388445968274	1	87.196681802161	87.3966628336348
28182.75	100	139	3	1	16	31	12	1	0	0	0	stim013_stimuli_original_vehicles_planes_1.png	B	0	0	0	87.5966638578102	87.7966648819856
28282.75	100	140	3	1	16	32	7	10	0	0	0	stim008_stimuli_original_animals_fish_4.png	Q	0	0	0	87.9967012582347	88.1966703431681
28382.75	100	141	3	1	16	33	11	13	0	0	0	stim012_stimuli_original_vehicles_boats_4.png	U	0	0	0	88.3967111082748	88.596712375991
28482.75	100	142	3	1	16	34	3	5	0	0	0	stim004_stimuli_original_animals_birds_4.png	F	0	0	0	88.7967077922076	88.9966983324848
28582.75	100	143	3	1	16	35	8	14	0	0	0	stim009_stimuli_original_vehicles_boats_1.png	V	0	0	0	89.1967120347545	89.3967137900181
31862	100	144	4	0	8	0	1	5	0	0	0	stim002_stimuli_original_animals_birds_2.png	F	0	0	0	102.313718620222	102.513710135594
31962	100	145	4	0	8	1	14	14	0	0	0	stim015_stimuli_original_vehicles_planes_3.png	V	0	0	0	102.71371823037	102.913717303891
32062	100	146	4	0	8	2	6	7	0	0	0	stim007_stimuli_original_animals_fish_3.png	J	0	0	0	103.113729299046	103.313730323222
32162	100	147	4	0	8	3	7	0	0	0	0	stim008_stimuli_original_animals_fish_4.png	A	0	0	0	103.513754996471	103.713755289093
32262	100	148	4	0	8	4	11	1	1	0	0	stim012_stimuli_original_vehicles_boats_4.png	B	0	0	0	103.91378142545	104.113788544666
32362	100	149	4	0	8	5	15	13	0	0	0	stim016_stimuli_original_vehicles_planes_4.png	U	0	0	0	104.31377347745	104.513768162578
32462	100	150	4	0	8	6	11	9	1	0	1	stim012_stimuli_original_vehicles_boats_4.png	L	0	0	0	104.713777231984	104.913773867302
32562	100	151	4	0	8	7	8	2	0	0	0	stim009_stimuli_original_vehicles_boats_1.png	C	d	105.305577823427	1	105.113814144861	105.313816631678
32662	100	152	4	0	8	8	12	11	0	0	0	stim013_stimuli_original_vehicles_planes_1.png	R	0	0	0	105.513820093591	105.713823068421
32762	100	153	4	0	8	9	2	4	0	0	0	stim003_stimuli_original_animals_birds_3.png	E	0	0	0	105.913832625374	106.113834868651
32862	100	154	4	0	8	10	11	10	0	0	0	stim012_stimuli_original_vehicles_boats_4.png	Q	0	0	0	106.313840037212	106.513827651739
32962	100	155	4	0	8	11	4	13	0	1	0	stim005_stimuli_original_animals_fish_1.png	U	0	0	0	106.713854763657	106.913858469576
33062	100	156	4	0	8	12	0	3	0	0	0	stim001_stimuli_original_animals_birds_1.png	D	0	0	0	107.113862419035	107.313850765117
33162	100	157	4	0	8	13	5	13	0	1	0	stim006_stimuli_original_animals_fish_2.png	U	0	0	0	107.513874707278	107.713879144285
33262	100	158	4	0	8	14	10	12	0	0	0	stim011_stimuli_original_vehicles_boats_3.png	T	0	0	0	107.913884556852	108.113890700974
33362	100	159	4	0	8	15	3	6	0	0	0	stim004_stimuli_original_animals_birds_4.png	G	0	0	0	108.313896601088	108.513888604008
33462	100	160	4	0	8	16	13	8	0	0	0	stim014_stimuli_original_vehicles_planes_2.png	K	0	0	0	108.713889628183	108.913911132142
33562	100	161	4	0	8	17	9	15	0	0	0	stim010_stimuli_original_vehicles_boats_2.png	Y	0	0	0	109.113942875993	109.313909523189
33662	100	162	4	0	8	18	15	9	0	0	0	stim016_stimuli_original_vehicles_planes_4.png	L	0	0	0	109.513910546899	109.713932050858
33762	100	163	4	0	8	19	8	13	0	0	0	stim009_stimuli_original_vehicles_boats_1.png	U	0	0	0	109.913915521	110.113915569615
33862	100	164	4	0	8	20	6	3	0	0	0	stim007_stimuli_original_animals_fish_3.png	D	0	0	0	110.313928783871	110.513932733797
33962	100	165	4	0	8	21	12	10	0	0	0	stim013_stimuli_original_vehicles_planes_1.png	Q	0	0	0	110.713938877918	110.913942095824
34062	100	166	4	0	8	22	13	5	1	0	0	stim014_stimuli_original_vehicles_planes_2.png	F	d	111.314150406979	0	111.113997245673	111.313953652512
34162.25	100	167	4	0	8	23	3	0	0	0	0	stim004_stimuli_original_animals_birds_4.png	A	0	0	0	111.514336482156	111.713967647403
34262	100	168	4	0	8	24	13	4	1	0	1	stim014_stimuli_original_vehicles_planes_2.png	E	0	0	0	111.913965501823	112.113970426843
34362	100	169	4	0	8	25	10	11	0	0	0	stim011_stimuli_original_vehicles_boats_3.png	R	0	0	0	112.313976326957	112.513979057316
34462	100	170	4	0	8	26	4	2	0	0	0	stim005_stimuli_original_animals_fish_1.png	C	0	0	0	112.713985932991	112.913989151362
34562	100	171	4	0	8	27	11	12	0	0	0	stim012_stimuli_original_vehicles_boats_4.png	T	0	0	0	113.114003097173	113.314002170693
34662	100	172	4	0	8	28	2	8	0	0	0	stim003_stimuli_original_animals_birds_3.png	K	0	0	0	113.514008070808	113.714012264274
34762	100	173	4	0	8	29	9	11	0	1	0	stim010_stimuli_original_vehicles_boats_2.png	R	0	0	0	113.914018652402	114.114022114314
34862	100	174	4	0	8	30	13	15	0	0	0	stim014_stimuli_original_vehicles_planes_2.png	Y	0	0	0	114.314059953671	114.514038790949
34962	100	175	4	0	8	31	1	11	0	1	0	stim002_stimuli_original_animals_birds_2.png	R	0	0	0	114.714041521307	114.914067901671
35062	100	176	4	0	8	32	0	7	0	0	0	stim001_stimuli_original_animals_birds_1.png	J	0	0	0	115.114050639793	115.314057515468
35162	100	177	4	0	8	33	7	6	0	0	0	stim008_stimuli_original_animals_fish_4.png	G	0	0	0	115.514079506975	115.714064195752
35262	100	178	4	0	8	34	14	14	0	0	0	stim015_stimuli_original_vehicles_planes_3.png	V	d	116.105835237075	0	115.914072046522	116.114075508434
35362.25	100	179	4	0	8	35	5	1	0	0	0	stim006_stimuli_original_animals_fish_2.png	B	0	0	0	116.314116761088	116.514110227115
36395.5	100	180	5	1	22	0	13	6	0	0	0	stim014_stimuli_original_vehicles_planes_2.png	G	0	0	0	120.447551957797	120.647559077479
36495.5	100	181	5	1	22	1	14	2	0	0	0	stim015_stimuli_original_vehicles_planes_3.png	C	0	0	0	120.847569365986	121.047574046999
36595.5	100	182	5	1	22	2	1	10	0	0	0	stim002_stimuli_original_animals_birds_2.png	Q	0	0	0	121.247555810027	121.447554152459
36695.5	100	183	5	1	22	3	11	12	0	0	0	stim012_stimuli_original_vehicles_boats_4.png	T	0	0	0	121.647561271675	121.847595697269
36795.5	100	184	5	1	22	4	7	14	0	0	0	stim008_stimuli_original_animals_fish_4.png	V	0	0	0	122.047572340351	122.247566293925
36895.5	100	185	5	1	22	5	9	5	0	0	0	stim010_stimuli_original_vehicles_boats_2.png	F	0	0	0	122.447569512296	122.647605645005
36995.5	100	186	5	1	22	6	2	8	0	0	0	stim003_stimuli_original_animals_birds_3.png	K	0	0	0	122.847596672829	123.047594527248
37095.5	100	187	5	1	22	7	4	2	0	1	0	stim005_stimuli_original_animals_fish_1.png	C	0	0	0	123.247628465295	123.447635096963
37195.5	100	188	5	1	22	8	10	9	0	0	0	stim011_stimuli_original_vehicles_boats_3.png	L	0	0	0	123.647639777977	123.8476471412
37295.5	100	189	5	1	22	9	0	2	0	1	1	stim001_stimuli_original_animals_birds_1.png	C	0	0	0	124.047657186165	124.24763943674
37395.5	100	190	5	1	22	10	2	15	1	0	0	stim003_stimuli_original_animals_birds_3.png	Y	0	0	0	124.447662403807	124.647646361031
37495.5	100	191	5	1	22	11	3	13	0	0	0	stim004_stimuli_original_animals_birds_4.png	U	f	125.039441295899	1	124.847677373793	125.047676934861
37595.5	100	192	5	1	22	12	2	11	1	0	0	stim003_stimuli_original_animals_birds_3.png	R	0	0	0	125.247660404537	125.447887439746
37695.5	100	193	5	1	22	13	6	1	0	0	0	stim007_stimuli_original_animals_fish_3.png	B	0	0	0	125.647668791469	125.847673228942
37795.5	100	194	5	1	22	14	8	3	0	0	0	stim009_stimuli_original_vehicles_boats_1.png	D	0	0	0	126.047669620253	126.24766893778
37895.5	100	195	5	1	22	15	12	0	0	0	0	stim013_stimuli_original_vehicles_planes_1.png	A	0	0	0	126.447683615144	126.647692685015
37995.5	100	196	5	1	22	16	15	4	0	0	0	stim016_stimuli_original_vehicles_planes_4.png	E	0	0	0	126.847704924177	127.047702047043
38095.5	100	197	5	1	22	17	5	7	0	0	0	stim006_stimuli_original_animals_fish_2.png	J	0	0	0	127.247701364569	127.447697268333
38195.5	100	198	5	1	22	18	7	5	0	0	0	stim008_stimuli_original_animals_fish_4.png	F	0	0	0	127.64771925984	127.847723697312
38295.5	100	199	5	1	22	19	4	15	0	0	0	stim005_stimuli_original_animals_fish_1.png	Y	0	0	0	128.047733986285	128.247756465338
38395.5	100	200	5	1	22	20	0	12	0	0	0	stim001_stimuli_original_animals_birds_1.png	T	0	0	0	128.447766510304	128.647754124831
38495.5	100	201	5	1	22	21	3	8	0	0	0	stim004_stimuli_original_animals_birds_4.png	K	0	0	0	128.847780017182	129.047763243318
38595.5	100	202	5	1	22	22	1	6	0	0	0	stim002_stimuli_original_animals_birds_2.png	G	0	0	0	129.24774403125	129.447791622486
38695.5	100	203	5	1	22	23	11	2	0	1	0	stim012_stimuli_original_vehicles_boats_4.png	C	0	0	0	129.647783381864	129.847804885823
38795.5	100	204	5	1	22	24	13	3	0	0	0	stim014_stimuli_original_vehicles_planes_2.png	D	0	0	0	130.0478071291	130.24781497987
38895.5	100	205	5	1	22	25	15	2	0	1	1	stim016_stimuli_original_vehicles_planes_4.png	C	0	0	0	130.447802593932	130.647823122796
38995.5	100	206	5	1	22	26	2	0	1	0	0	stim003_stimuli_original_animals_birds_3.png	A	f	131.039594408125	1	130.847829266917	131.047831997741
39095.5	100	207	5	1	22	27	9	10	0	0	0	stim010_stimuli_original_vehicles_boats_2.png	Q	0	0	0	131.247835215647	131.447821367532
39195.5	100	208	5	1	22	28	2	4	1	0	0	stim003_stimuli_original_animals_birds_3.png	E	0	0	0	131.647828730289	131.847854623105
39295.5	100	209	5	1	22	29	8	2	0	0	0	stim009_stimuli_original_vehicles_boats_1.png	C	0	0	0	132.047858816572	132.247864716686
39395.5	100	210	5	1	22	30	5	9	0	0	0	stim006_stimuli_original_animals_fish_2.png	L	0	0	0	132.447851356119	132.647838239092
39495.5	100	211	5	1	22	31	14	7	0	0	0	stim015_stimuli_original_vehicles_planes_3.png	J	0	0	0	132.847848771606	133.047881734557
39595.5	100	212	5	1	22	32	12	11	0	0	0	stim013_stimuli_original_vehicles_planes_1.png	R	0	0	0	133.247907383367	133.447882563807
39695.5	100	213	5	1	22	33	10	1	0	0	0	stim011_stimuli_original_vehicles_boats_3.png	B	0	0	0	133.647899191361	133.847907773685
39795.5	100	214	5	1	22	34	2	14	0	0	0	stim003_stimuli_original_animals_birds_3.png	V	0	0	0	134.047889780253	134.247889829334
39895.5	100	215	5	1	22	35	6	13	0	0	0	stim007_stimuli_original_animals_fish_3.png	U	0	0	0	134.447897923645	134.647913088556
40816.5	100	216	6	0	42	0	3	1	0	0	0	stim004_stimuli_original_animals_birds_4.png	B	0	0	0	138.131329902448	138.331341654062
40916.5	100	217	6	0	42	1	13	4	0	0	0	stim014_stimuli_original_vehicles_planes_2.png	E	0	0	0	138.531367302407	138.731367107481
41016.5	100	218	6	0	42	2	2	13	0	0	0	stim003_stimuli_original_animals_birds_3.png	U	0	0	0	138.931360817049	139.131354283076
41116.5	100	219	6	0	42	3	0	0	0	0	0	stim001_stimuli_original_animals_birds_1.png	A	0	0	0	139.331363596488	139.531363645568
41216.5	100	220	6	0	42	4	12	2	0	0	0	stim013_stimuli_original_vehicles_planes_1.png	C	0	0	0	139.731369545683	139.931372032501
41316.5	100	221	6	0	42	5	4	14	0	0	0	stim005_stimuli_original_animals_fish_1.png	V	0	0	0	140.131380126812	140.331384076737
41416.5	100	222	6	0	42	6	6	7	0	0	0	stim007_stimuli_original_animals_fish_3.png	J	0	0	0	140.531391927507	140.73142318381
41516.5	100	223	6	0	42	7	9	15	0	0	0	stim010_stimuli_original_vehicles_boats_2.png	Y	0	0	0	140.931429571472	141.131421574391
41616.5	100	224	6	0	42	8	5	8	0	0	0	stim006_stimuli_original_animals_fish_2.png	K	0	0	0	141.331425524317	141.531426792033
41716.5	100	225	6	0	42	9	11	9	0	0	0	stim012_stimuli_original_vehicles_boats_4.png	L	0	0	0	141.731430010404	141.931459560059
41816.5	100	226	6	0	42	10	0	11	1	0	0	stim001_stimuli_original_animals_birds_1.png	R	0	0	0	142.131444492843	142.331464046147
41916.5	100	227	6	0	42	11	8	7	0	1	0	stim009_stimuli_original_vehicles_boats_1.png	J	0	0	0	142.531471409369	142.73146170564
42016.5	100	228	6	0	42	12	0	3	1	0	1	stim001_stimuli_original_animals_birds_1.png	D	0	0	0	142.931485403795	143.131476675626
42116.5	100	229	6	0	42	13	10	7	0	1	0	stim011_stimuli_original_vehicles_boats_3.png	J	0	0	0	143.331466484349	143.531495789997
42216.5	100	230	6	0	42	14	15	10	0	0	0	stim016_stimuli_original_vehicles_planes_4.png	Q	d	143.724056969397	1	143.731504372321	143.931499788538
42316.5	100	231	6	0	42	15	7	12	0	0	0	stim008_stimuli_original_animals_fish_4.png	T	0	0	0	144.131878717337	144.331502324436
42416.5	100	232	6	0	42	16	1	5	0	0	0	stim002_stimuli_original_animals_birds_2.png	F	0	0	0	144.531507249456	144.731504615862
42516.5	100	233	6	0	42	17	14	6	0	0	0	stim015_stimuli_original_vehicles_planes_3.png	G	0	0	0	144.931522218976	145.1315120277
42616.5	100	234	6	0	42	18	6	14	0	0	0	stim007_stimuli_original_animals_fish_3.png	V	0	0	0	145.331538895611	145.531526997685
42716.5	100	235	6	0	42	19	5	1	0	0	0	stim006_stimuli_original_animals_fish_2.png	B	0	0	0	145.731534360908	145.931562447455
42816.5	100	236	6	0	42	20	12	7	0	0	0	stim013_stimuli_original_vehicles_planes_1.png	J	0	0	0	146.131577612832	146.331555231009
42916.5	100	237	6	0	42	21	10	15	0	0	0	stim011_stimuli_original_vehicles_boats_3.png	Y	0	0	0	146.531577466521	146.731582147535
43016.5	100	238	6	0	42	22	7	10	1	0	0	stim008_stimuli_original_animals_fish_4.png	Q	0	0	0	146.931591460947	147.131593216211
43116.5	100	239	6	0	42	23	3	0	0	1	0	stim004_stimuli_original_animals_birds_4.png	A	0	0	0	147.331583512947	147.531574296765
43216.5	100	240	6	0	42	24	7	8	1	0	1	stim008_stimuli_original_animals_fish_4.png	K	0	0	0	147.731587023474	147.931619986892
43316.5	100	241	6	0	42	25	11	0	0	1	0	stim012_stimuli_original_vehicles_boats_4.png	A	0	0	0	148.131629300304	148.33162471652
43416.5	100	242	6	0	42	26	9	11	0	0	0	stim010_stimuli_original_vehicles_boats_2.png	R	d	148.524247823283	1	148.531616475899	148.731612867676
43516.5	100	243	6	0	42	27	8	5	0	0	0	stim009_stimuli_original_vehicles_boats_1.png	F	0	0	0	148.931614622939	149.13161686575
43616.5	100	244	6	0	42	28	15	9	0	0	0	stim016_stimuli_original_vehicles_planes_4.png	L	0	0	0	149.331635687966	149.532055820338
43716.5	100	245	6	0	42	29	7	6	0	0	0	stim008_stimuli_original_animals_fish_4.png	G	0	0	0	149.731671137735	149.931653632317
43816.5	100	246	6	0	42	30	14	4	0	0	0	stim015_stimuli_original_vehicles_planes_3.png	E	0	0	0	150.131672454532	150.331655680202
43916.5	100	247	6	0	42	31	2	12	0	0	0	stim003_stimuli_original_animals_birds_3.png	T	0	0	0	150.531682304572	150.731691130437
44016.5	100	248	6	0	42	32	0	0	0	0	0	stim001_stimuli_original_animals_birds_1.png	A	0	0	0	150.931692154147	151.131681475323
44116.5	100	249	6	0	42	33	13	2	0	0	0	stim014_stimuli_original_vehicles_planes_2.png	C	0	0	0	151.331692983396	151.531708635855
44216.5	100	250	6	0	42	34	4	13	0	0	0	stim005_stimuli_original_animals_fish_1.png	U	0	0	0	151.731716486625	151.931733114179
44316.5	100	251	6	0	42	35	1	3	0	0	0	stim002_stimuli_original_animals_birds_2.png	D	0	0	0	152.131705368869	152.33171151299
46837.5	100	252	7	1	25	0	4	5	0	0	0	stim005_stimuli_original_animals_fish_1.png	F	0	0	0	162.215293482877	162.415312061086
46937.5	100	253	7	1	25	1	5	13	0	0	0	stim006_stimuli_original_animals_fish_2.png	U	0	0	0	162.615309915505	162.815315084532
47037.5	100	254	7	1	25	2	3	3	0	0	0	stim004_stimuli_original_animals_birds_4.png	D	0	0	0	163.015328786802	163.215334686916
47137.5	100	255	7	1	25	3	10	14	0	0	0	stim011_stimuli_original_vehicles_boats_3.png	V	0	0	0	163.415356190875	163.615356727038
47237.5	100	256	7	1	25	4	15	2	0	0	0	stim016_stimuli_original_vehicles_planes_4.png	C	0	0	0	163.815365065355	164.015693037771
47337.5	100	257	7	1	25	5	1	6	0	0	0	stim002_stimuli_original_animals_birds_2.png	G	0	0	0	164.215355410706	164.41534838872
47437.5	100	258	7	1	25	6	12	9	0	0	0	stim013_stimuli_original_vehicles_planes_1.png	L	0	0	0	164.615393054672	164.815373598598
47537.5	100	259	7	1	25	7	9	15	0	0	0	stim010_stimuli_original_vehicles_boats_2.png	Y	0	0	0	165.015381936915	165.215373208746
47637.5	100	260	7	1	25	8	7	0	0	0	0	stim008_stimuli_original_animals_fish_4.png	A	0	0	0	165.415414948948	165.61541548511
47737.5	100	261	7	1	25	9	8	11	0	0	0	stim009_stimuli_original_vehicles_boats_1.png	R	0	0	0	165.815418459475	166.015403879806
47837.5	100	262	7	1	25	10	9	7	1	0	0	stim010_stimuli_original_vehicles_boats_2.png	J	0	0	0	166.215431722812	166.415405440144
47937.5	100	263	7	1	25	11	2	15	0	1	0	stim003_stimuli_original_animals_birds_3.png	Y	0	0	0	166.61541841086	166.815421141684
48037.5	100	264	7	1	25	12	9	12	1	0	0	stim010_stimuli_original_vehicles_boats_2.png	T	0	0	0	167.015449716244	167.215452446602
48137.5	100	265	7	1	25	13	13	15	0	1	1	stim014_stimuli_original_vehicles_planes_2.png	Y	0	0	0	167.415439573582	167.615468391683
48237.5	100	266	7	1	25	14	6	4	0	0	0	stim007_stimuli_original_animals_fish_3.png	E	0	0	0	167.815454056021	168.01546678273
48337.5	100	267	7	1	25	15	11	10	0	0	0	stim012_stimuli_original_vehicles_boats_4.png	Q	d	168.40722636506	1	168.215463662054	168.415461272467
48437.5	100	268	7	1	25	16	0	1	0	0	0	stim001_stimuli_original_animals_birds_1.png	B	0	0	0	168.615476925392	168.815499160439
48537.5	100	269	7	1	25	17	14	8	0	0	0	stim015_stimuli_original_vehicles_planes_3.png	K	0	0	0	169.015500184614	169.215503402986
48637.5	100	270	7	1	25	18	8	14	0	0	0	stim009_stimuli_original_vehicles_boats_1.png	V	0	0	0	169.41550320806	169.615498136729
48737.5	100	271	7	1	25	19	1	0	0	0	0	stim002_stimuli_original_animals_birds_2.png	A	0	0	0	169.815505255945	170.015505061019
48837.5	100	272	7	1	25	20	10	11	0	0	0	stim011_stimuli_original_vehicles_boats_3.png	R	0	0	0	170.215514374431	170.415521249641
48937.5	100	273	7	1	25	21	4	6	0	0	0	stim005_stimuli_original_animals_fish_1.png	G	0	0	0	170.615525199566	170.815531099681
49037.5	100	274	7	1	25	22	15	13	1	0	0	stim016_stimuli_original_vehicles_planes_4.png	U	0	0	0	171.015555041842	171.215543143917
49137.5	100	275	7	1	25	23	12	9	0	1	0	stim013_stimuli_original_vehicles_planes_1.png	L	0	0	0	171.415566110518	171.615551530849
49237.5	100	276	7	1	25	24	15	2	1	0	0	stim016_stimuli_original_vehicles_planes_4.png	C	0	0	0	171.815585469361	172.015581373125
49337.5	100	277	7	1	25	25	7	9	0	1	1	stim008_stimuli_original_animals_fish_4.png	L	0	0	0	172.215589223895	172.415590735618
49437.5	100	278	7	1	25	26	11	8	0	0	0	stim012_stimuli_original_vehicles_boats_4.png	K	d	172.807363483589	1	172.615599561483	172.815579617862
49537.5	100	279	7	1	25	27	0	7	0	0	0	stim001_stimuli_original_animals_birds_1.png	J	0	0	0	173.015580154024	173.215630671475
49637.5	100	280	7	1	25	28	15	9	0	0	0	stim016_stimuli_original_vehicles_planes_4.png	L	0	0	0	173.415617310442	173.615621747915
49737.5	100	281	7	1	25	29	9	12	0	0	0	stim010_stimuli_original_vehicles_boats_2.png	T	0	0	0	173.815632280428	174.015633304603
49837.5	100	282	7	1	25	30	6	1	0	0	0	stim007_stimuli_original_animals_fish_3.png	B	0	0	0	174.215623600874	174.41564559238
49937.5	100	283	7	1	25	31	2	15	0	0	0	stim003_stimuli_original_animals_birds_3.png	Y	0	0	0	174.615888719447	174.815640326124
50037.5	100	284	7	1	25	32	14	10	0	0	0	stim015_stimuli_original_vehicles_planes_3.png	Q	0	0	0	175.015659392346	175.21564651886
50137.5	100	285	7	1	25	33	3	3	0	0	0	stim004_stimuli_original_animals_birds_4.png	D	0	0	0	175.415671192575	175.615656124894
50237.5	100	286	7	1	25	34	13	5	0	0	0	stim014_stimuli_original_vehicles_planes_2.png	F	0	0	0	175.815685675014	176.015689380933
50337.5	100	287	7	1	25	35	5	4	0	0	0	stim006_stimuli_original_animals_fish_2.png	E	0	0	0	176.215692355298	176.415700937156
51620.75	100	288	8	0	46	0	12	14	0	0	0	stim013_stimuli_original_vehicles_planes_1.png	V	0	0	0	181.349156809039	181.549158077221
51720.75	100	289	8	0	46	1	5	3	0	0	0	stim006_stimuli_original_animals_fish_2.png	D	0	0	0	181.749163977336	181.949160368647
51820.75	100	290	8	0	46	2	13	9	0	0	0	stim014_stimuli_original_vehicles_planes_2.png	L	0	0	0	182.149165050127	182.349188260734
51920.75	100	291	8	0	46	3	0	7	0	0	0	stim001_stimuli_original_animals_birds_1.png	J	0	0	0	182.549202694092	182.749195185024
52020.75	100	292	8	0	46	4	14	2	1	0	0	stim015_stimuli_original_vehicles_planes_3.png	C	0	0	0	182.949209374376	183.149179190863
52120.75	100	293	8	0	46	5	4	4	0	0	0	stim005_stimuli_original_animals_fish_1.png	E	0	0	0	183.349222881719	183.549217810389
52220.75	100	294	8	0	46	6	14	15	1	0	1	stim015_stimuli_original_vehicles_planes_3.png	Y	0	0	0	183.749210544862	183.949212300126
52321	100	295	8	0	46	7	9	10	0	0	0	stim010_stimuli_original_vehicles_boats_2.png	Q	0	0	0	184.149624874815	184.349226538558
52420.75	100	296	8	0	46	8	15	8	0	0	0	stim016_stimuli_original_vehicles_planes_4.png	K	0	0	0	184.549233414233	184.749233462848
52520.75	100	297	8	0	46	9	10	1	0	0	0	stim011_stimuli_original_vehicles_boats_3.png	B	0	0	0	184.94924277626	185.149243068881
52620.75	100	298	8	0	46	10	6	13	0	0	0	stim007_stimuli_original_animals_fish_3.png	U	0	0	0	185.349238729104	185.549270229414
52720.75	100	299	8	0	46	11	7	11	0	0	0	stim008_stimuli_original_animals_fish_4.png	R	0	0	0	185.749263695441	185.949261305854
52820.75	100	300	8	0	46	12	8	8	0	1	0	stim009_stimuli_original_vehicles_boats_1.png	K	0	0	0	186.149271838367	186.349292611238
52920.75	100	301	8	0	46	13	14	12	0	0	0	stim015_stimuli_original_vehicles_planes_3.png	T	d	186.541826971341	0	186.549242191482	186.749282225035
53020.75	100	302	8	0	46	14	11	8	0	1	0	stim012_stimuli_original_vehicles_boats_4.png	K	0	0	0	186.949310555588	187.149311823305
53120.75	100	303	8	0	46	15	1	5	0	0	0	stim002_stimuli_original_animals_birds_2.png	F	0	0	0	187.349297243636	187.549308263697
53221	100	304	8	0	46	16	3	6	0	0	0	stim004_stimuli_original_animals_birds_4.png	G	0	0	0	187.749328061007	187.949339812621
53320.75	100	305	8	0	46	17	2	0	0	0	0	stim003_stimuli_original_animals_birds_3.png	A	0	0	0	188.149323769845	188.349329426419
53421	100	306	8	0	46	18	0	2	0	0	0	stim001_stimuli_original_animals_birds_1.png	C	0	0	0	188.549339714926	188.749330011662
53521	100	307	8	0	46	19	6	3	0	0	0	stim007_stimuli_original_animals_fish_3.png	D	0	0	0	188.949342250824	189.149350589141
53621	100	308	8	0	46	20	5	1	0	0	0	stim006_stimuli_original_animals_fish_2.png	B	0	0	0	189.349357464351	189.549538419582
53721	100	309	8	0	46	21	8	11	1	0	0	stim009_stimuli_original_vehicles_boats_1.png	R	0	0	0	189.749367801938	189.949373214506
53821	100	310	8	0	46	22	12	14	0	0	0	stim013_stimuli_original_vehicles_planes_1.png	V	0	0	0	190.149374238681	190.349378919695
53921	100	311	8	0	46	23	8	8	1	0	1	stim009_stimuli_original_vehicles_boats_1.png	K	0	0	0	190.549390427303	190.749393645674
54021	100	312	8	0	46	24	11	7	0	0	0	stim012_stimuli_original_vehicles_boats_4.png	J	0	0	0	190.949399302248	191.149403739255
54121	100	313	8	0	46	25	13	6	0	0	0	stim014_stimuli_original_vehicles_planes_2.png	G	0	0	0	191.34939281689	191.549439920578
54221	100	314	8	0	46	26	1	10	0	0	0	stim002_stimuli_original_animals_birds_2.png	Q	d	191.741996467579	1	191.749446796253	191.949423439335
54321	100	315	8	0	46	27	8	15	0	0	0	stim009_stimuli_original_vehicles_boats_1.png	Y	0	0	0	192.149434946943	192.349451330956
54421	100	316	8	0	46	28	10	9	0	0	0	stim011_stimuli_original_vehicles_boats_3.png	L	0	0	0	192.549462107476	192.749507016968
54521	100	317	8	0	46	29	15	14	0	1	0	stim016_stimuli_original_vehicles_planes_4.png	V	0	0	0	192.949454647023	193.149471274577
54621	100	318	8	0	46	30	4	4	0	0	0	stim005_stimuli_original_animals_fish_1.png	E	0	0	0	193.349479856901	193.549488195218
54721	100	319	8	0	46	31	2	14	0	1	0	stim003_stimuli_original_animals_birds_3.png	V	0	0	0	193.74949458288	193.949494875502
54821	100	320	8	0	46	32	7	0	0	0	0	stim008_stimuli_original_animals_fish_4.png	A	0	0	0	194.149500775617	194.349507894833
54921	100	321	8	0	46	33	9	13	0	0	0	stim010_stimuli_original_vehicles_boats_2.png	U	0	0	0	194.549513063394	194.749495557975
55021	100	322	8	0	46	34	3	5	0	0	0	stim004_stimuli_original_animals_birds_4.png	F	0	0	0	194.949520963244	195.149515404366
55121	100	323	8	0	46	35	14	12	0	0	0	stim015_stimuli_original_vehicles_planes_3.png	T	0	0	0	195.349524717778	195.549527448136
57525.25	100	324	9	1	28	0	13	15	0	0	0	stim014_stimuli_original_vehicles_planes_2.png	Y	0	0	0	204.966461817734	205.166452845559
57625.25	100	325	9	1	28	1	15	3	0	0	0	stim016_stimuli_original_vehicles_planes_4.png	D	0	0	0	205.366459964775	205.566466596443
57725.25	100	326	9	1	28	2	9	0	0	0	0	stim010_stimuli_original_vehicles_boats_2.png	A	0	0	0	205.766472984105	205.966473520733
57825.25	100	327	9	1	28	3	4	10	0	0	0	stim005_stimuli_original_animals_fish_1.png	Q	0	0	0	206.166481859051	206.366483614314
57925.25	100	328	9	1	28	4	2	2	0	0	0	stim003_stimuli_original_animals_birds_3.png	C	0	0	0	206.566494390834	206.766489075497
58025.25	100	329	9	1	28	5	5	14	0	0	0	stim006_stimuli_original_animals_fish_2.png	V	0	0	0	206.966483516619	207.166521599982
58125.25	100	330	9	1	28	6	0	12	0	0	0	stim001_stimuli_original_animals_birds_1.png	T	0	0	0	207.366499462165	207.566501217429
58225.25	100	331	9	1	28	7	14	5	0	0	0	stim015_stimuli_original_vehicles_planes_3.png	F	0	0	0	207.766536131036	207.966539836954
58325.25	100	332	9	1	28	8	8	1	0	0	0	stim009_stimuli_original_vehicles_boats_1.png	B	0	0	0	208.166537691373	208.366527987644
58425.25	100	333	9	1	28	9	0	3	1	1	0	stim001_stimuli_original_animals_birds_1.png	D	0	0	0	208.566521453671	208.766532473732
58525.25	100	334	9	1	28	10	11	8	0	0	0	stim012_stimuli_original_vehicles_boats_4.png	K	0	0	0	208.966574213933	209.166552563664
58625.25	100	335	9	1	28	11	0	3	1	1	1	stim001_stimuli_original_animals_birds_1.png	D	0	0	0	209.366575774271	209.566578017548
58725.25	100	336	9	1	28	12	6	7	0	0	0	stim007_stimuli_original_animals_fish_3.png	J	0	0	0	209.766570020467	209.966573726386
58825.25	100	337	9	1	28	13	1	4	0	0	0	stim002_stimuli_original_animals_birds_2.png	E	0	0	0	210.166577919852	210.366565290373
58925.25	100	338	9	1	28	14	3	9	0	0	0	stim004_stimuli_original_animals_birds_4.png	L	d	210.559175475501	1	210.566575335339	210.766609517392
59025.25	100	339	9	1	28	15	10	11	0	0	0	stim011_stimuli_original_vehicles_boats_3.png	R	0	0	0	210.966620049905	211.166621561628
59125.25	100	340	9	1	28	16	7	6	0	0	0	stim008_stimuli_original_animals_fish_4.png	G	0	0	0	211.366627949756	211.566630436573
59225.25	100	341	9	1	28	17	12	13	0	0	0	stim013_stimuli_original_vehicles_planes_1.png	U	0	0	0	211.766655353829	211.966647356749
59325.25	100	342	9	1	28	18	13	12	0	0	0	stim014_stimuli_original_vehicles_planes_2.png	T	0	0	0	212.166649843566	212.366640383843
59425.25	100	343	9	1	28	19	6	7	0	0	0	stim007_stimuli_original_animals_fish_3.png	J	0	0	0	212.566660181154	212.766668275464
59525.25	100	344	9	1	28	20	11	10	0	0	0	stim012_stimuli_original_vehicles_boats_4.png	Q	0	0	0	212.96667832043	213.166678369511
59625.25	100	345	9	1	28	21	9	3	0	0	0	stim010_stimuli_original_vehicles_boats_2.png	D	0	0	0	213.366684757173	213.566667982843
59725.25	100	346	9	1	28	22	4	1	0	0	0	stim005_stimuli_original_animals_fish_1.png	B	0	0	0	213.766718987841	213.966696606483
59825.25	100	347	9	1	28	23	7	6	0	0	0	stim008_stimuli_original_animals_fish_4.png	G	0	0	0	214.167093576863	214.366715964861
59925.25	100	348	9	1	28	24	3	0	1	1	0	stim004_stimuli_original_animals_birds_4.png	A	0	0	0	214.566713087726	214.766700458247
60025.25	100	349	9	1	28	25	8	11	0	0	0	stim009_stimuli_original_vehicles_boats_1.png	R	0	0	0	214.966721718665	215.166713234037
60125.25	100	350	9	1	28	26	3	0	1	1	1	stim004_stimuli_original_animals_birds_4.png	A	0	0	0	215.36673546955	215.566738200374
60225.25	100	351	9	1	28	27	1	8	0	0	0	stim002_stimuli_original_animals_birds_2.png	K	d	215.958509729244	1	215.766744100489	215.966750000603
60325.25	100	352	9	1	28	28	5	14	0	0	0	stim006_stimuli_original_animals_fish_2.png	V	0	0	0	216.166756144725	216.36675911909
60425.25	100	353	9	1	28	29	12	0	0	0	0	stim013_stimuli_original_vehicles_planes_1.png	A	0	0	0	216.566765019204	216.766769212671
60525.25	100	354	9	1	28	30	14	5	0	0	0	stim015_stimuli_original_vehicles_planes_3.png	F	0	0	0	216.966777550988	217.166784182657
60625.25	100	355	9	1	28	31	2	2	0	0	0	stim003_stimuli_original_animals_birds_3.png	C	0	0	0	217.366769358981	217.566789887846
60725.25	100	356	9	1	28	32	10	4	0	0	0	stim011_stimuli_original_vehicles_boats_3.png	E	0	0	0	217.766797250602	217.966801932082
60825.25	100	357	9	1	28	33	0	9	0	0	0	stim001_stimuli_original_animals_birds_1.png	L	0	0	0	218.16682636179	218.366814219858
60925.25	100	358	9	1	28	34	3	15	0	0	0	stim004_stimuli_original_animals_birds_4.png	Y	0	0	0	218.566818900872	218.766809197608
61025.25	100	359	9	1	28	35	15	13	0	0	0	stim016_stimuli_original_vehicles_planes_4.png	U	0	0	0	218.966815341264	219.166815146338
62283.5	100	360	10	0	14	0	4	14	0	0	0	stim005_stimuli_original_animals_fish_1.png	V	0	0	0	224.000279649161	224.200294814073
62383.5	100	361	10	0	14	1	0	4	0	0	0	stim001_stimuli_original_animals_birds_1.png	E	0	0	0	224.400304127485	224.600314904004
62483.5	100	362	10	0	14	2	10	10	0	0	0	stim011_stimuli_original_vehicles_boats_3.png	Q	0	0	0	224.800283013843	225.000300616957
62583.5	100	363	10	0	14	3	12	7	0	0	0	stim013_stimuli_original_vehicles_planes_1.png	J	0	0	0	225.200315294322	225.400309247896
62683.5	100	364	10	0	14	4	8	8	1	0	0	stim009_stimuli_original_vehicles_boats_1.png	K	0	0	0	225.600308564957	225.800312270876
62783.5	100	365	10	0	14	5	2	11	0	0	0	stim003_stimuli_original_animals_birds_3.png	R	0	0	0	226.000325729139	226.2003426007
62883.5	100	366	10	0	14	6	8	6	1	0	1	stim009_stimuli_original_vehicles_boats_1.png	G	0	0	0	226.400343624875	226.600363909733
62983.5	100	367	10	0	14	7	15	1	0	0	0	stim016_stimuli_original_vehicles_planes_4.png	B	0	0	0	226.800366640557	227.00036839582
63083.5	100	368	10	0	14	8	13	5	0	0	0	stim014_stimuli_original_vehicles_planes_2.png	F	0	0	0	227.200379659887	227.40036337357
63183.5	100	369	10	0	14	9	9	9	0	0	0	stim010_stimuli_original_vehicles_boats_2.png	L	0	0	0	227.600397555623	227.800392484292
63283.5	100	370	10	0	14	10	5	3	0	0	0	stim006_stimuli_original_animals_fish_2.png	D	0	0	0	228.000404723454	228.200400871225
63383.5	100	371	10	0	14	11	8	2	0	0	0	stim009_stimuli_original_vehicles_boats_1.png	C	0	0	0	228.400395312347	228.600417791866
63483.5	100	372	10	0	14	12	6	1	0	1	0	stim007_stimuli_original_animals_fish_3.png	B	d	228.792970681097	0	228.800420522224	229.000654140487
63583.5	100	373	10	0	14	13	1	12	0	0	0	stim002_stimuli_original_animals_birds_2.png	T	0	0	0	229.200406235177	229.400407258887
63683.5	100	374	10	0	14	14	7	1	0	1	0	stim008_stimuli_original_animals_fish_4.png	B	0	0	0	229.600413890556	229.800411744975
63783.5	100	375	10	0	14	15	11	0	0	0	0	stim012_stimuli_original_vehicles_boats_4.png	A	0	0	0	230.000451534986	230.200431834906
63883.5	100	376	10	0	14	16	3	13	0	0	0	stim004_stimuli_original_animals_birds_4.png	U	0	0	0	230.400435297284	230.600469966885
63983.75	100	377	10	0	14	17	14	15	0	0	0	stim015_stimuli_original_vehicles_planes_3.png	Y	0	0	0	230.80044734152	231.000443976838
64083.75	100	378	10	0	14	18	15	14	0	0	0	stim016_stimuli_original_vehicles_planes_4.png	V	0	0	0	231.200451827608	231.4004908856
64183.75	100	379	10	0	14	19	13	3	0	0	0	stim014_stimuli_original_vehicles_planes_2.png	D	0	0	0	231.600495079067	231.800495128147
64283.75	100	380	10	0	14	20	0	11	0	0	0	stim001_stimuli_original_animals_birds_1.png	R	0	0	0	232.000502490904	232.200493762735
64383.75	100	381	10	0	14	21	1	7	1	0	0	stim002_stimuli_original_animals_birds_2.png	J	0	0	0	232.400486497208	232.600489959121
64483.75	100	382	10	0	14	22	12	1	0	0	0	stim013_stimuli_original_vehicles_planes_1.png	B	0	0	0	232.800493909046	233.000500784256
64583.75	100	383	10	0	14	23	1	6	1	0	1	stim002_stimuli_original_animals_birds_2.png	G	0	0	0	233.200508635025	233.400543792173
64683.75	100	384	10	0	14	24	2	8	0	0	0	stim003_stimuli_original_animals_birds_3.png	K	0	0	0	233.600547254551	233.800552667119
64783.75	100	385	10	0	14	25	3	5	0	0	0	stim004_stimuli_original_animals_birds_4.png	F	0	0	0	234.000541256741	234.200562029146
64883.75	100	386	10	0	14	26	9	9	0	0	0	stim010_stimuli_original_vehicles_boats_2.png	L	0	0	0	234.400578413159	234.600556031801
64983.75	100	387	10	0	14	27	5	13	0	0	0	stim006_stimuli_original_animals_fish_2.png	U	0	0	0	234.800551691558	235.000551253092
65083.75	100	388	10	0	14	28	1	15	0	0	0	stim002_stimuli_original_animals_birds_2.png	Y	0	0	0	235.200570074841	235.400595967658
65183.75	100	389	10	0	14	29	6	8	0	1	0	stim007_stimuli_original_animals_fish_3.png	K	0	0	0	235.600602842867	235.800619470887
65283.75	100	390	10	0	14	30	11	2	0	0	0	stim012_stimuli_original_vehicles_boats_4.png	C	0	0	0	236.000614399556	236.200586897787
65383.75	100	391	10	0	14	31	8	8	0	1	0	stim009_stimuli_original_vehicles_boats_1.png	K	0	0	0	236.400598161854	236.600606500171
65483.75	100	392	10	0	14	32	7	12	0	0	0	stim008_stimuli_original_animals_fish_4.png	T	0	0	0	236.800614106935	237.000613180455
65583.75	100	393	10	0	14	33	10	10	0	0	0	stim011_stimuli_original_vehicles_boats_3.png	Q	0	0	0	237.200617373921	237.40061912965
65683.75	100	394	10	0	14	34	4	0	0	0	0	stim005_stimuli_original_animals_fish_1.png	A	0	0	0	237.600626736414	237.800626785029
65783.75	100	395	10	0	14	35	14	4	0	0	0	stim015_stimuli_original_vehicles_planes_3.png	E	0	0	0	238.000661454629	238.200682715047
66737.75	100	396	11	1	10	0	10	8	0	0	0	stim011_stimuli_original_vehicles_boats_3.png	K	0	0	0	241.817436470184	242.017422378063
66837.75	100	397	11	1	10	1	12	1	0	0	0	stim013_stimuli_original_vehicles_planes_1.png	B	0	0	0	242.217426571529	242.417433690745
66937.75	100	398	11	1	10	2	13	14	0	0	0	stim014_stimuli_original_vehicles_planes_2.png	V	0	0	0	242.617439103313	242.817437445745
67037.75	100	399	11	1	10	3	6	2	0	0	0	stim007_stimuli_original_animals_fish_3.png	C	0	0	0	243.017438225914	243.217440956272
67137.75	100	400	11	1	10	4	5	7	0	0	0	stim006_stimuli_original_animals_fish_2.png	J	0	0	0	243.417447831947	243.617451781407
67237.75	100	401	11	1	10	5	14	13	0	0	0	stim015_stimuli_original_vehicles_planes_3.png	U	0	0	0	243.817455731332	244.017494545784
67338	100	402	11	1	10	6	3	4	0	0	0	stim004_stimuli_original_animals_birds_4.png	E	0	0	0	244.217501665	244.417488547973
67437.75	100	403	11	1	10	7	8	12	0	0	0	stim009_stimuli_original_vehicles_boats_1.png	T	0	0	0	244.617485427298	244.817512782756
67538	100	404	11	1	10	8	4	6	0	0	0	stim005_stimuli_original_animals_fish_1.png	G	0	0	0	245.017509418074	245.217508491594
67638	100	405	11	1	10	9	5	11	1	1	0	stim006_stimuli_original_animals_fish_2.png	R	0	0	0	245.417532433756	245.617539065424
67738	100	406	11	1	10	10	0	9	0	0	0	stim001_stimuli_original_animals_birds_1.png	L	0	0	0	245.817541064695	246.017529166769
67838	100	407	11	1	10	11	5	11	1	1	1	stim006_stimuli_original_animals_fish_2.png	R	0	0	0	246.217553108931	246.417540479451
67938	100	408	11	1	10	12	1	15	0	0	0	stim002_stimuli_original_animals_birds_2.png	Y	0	0	0	246.617548330221	246.817545209546
68038	100	409	11	1	10	13	11	0	0	0	0	stim012_stimuli_original_vehicles_boats_4.png	A	0	0	0	247.017543063965	247.217552864924
68138	100	410	11	1	10	14	15	3	0	0	0	stim016_stimuli_original_vehicles_planes_4.png	D	0	0	0	247.417561447248	247.617586364504
68238	100	411	11	1	10	15	9	11	0	0	0	stim010_stimuli_original_vehicles_boats_2.png	R	0	0	0	247.817839487456	248.017572565004
68338	100	412	11	1	10	16	7	10	0	0	0	stim008_stimuli_original_animals_fish_4.png	Q	d	248.409373350907	1	248.217605040409	248.417586071882
68438	100	413	11	1	10	17	2	5	0	0	0	stim003_stimuli_original_animals_birds_3.png	F	0	0	0	248.617596116848	248.81759348372
68538	100	414	11	1	10	18	5	2	0	0	0	stim006_stimuli_original_animals_fish_2.png	C	0	0	0	249.017612061929	249.21763600409
68638	100	415	11	1	10	19	10	7	0	0	0	stim011_stimuli_original_vehicles_boats_3.png	J	0	0	0	249.4176370278	249.617641465273
68738	100	416	11	1	10	20	11	9	0	0	0	stim012_stimuli_original_vehicles_boats_4.png	L	0	0	0	249.817649072036	250.017636199016
68838	100	417	11	1	10	21	3	15	0	0	0	stim004_stimuli_original_animals_birds_4.png	Y	0	0	0	250.21763307834	250.417636540253
68938	100	418	11	1	10	22	0	11	0	0	0	stim001_stimuli_original_animals_birds_1.png	R	0	0	0	250.617645366117	250.817677597981
69038	100	419	11	1	10	23	15	1	0	0	0	stim016_stimuli_original_vehicles_planes_4.png	B	0	0	0	251.017682278994	251.217666236218
69138	100	420	11	1	10	24	11	5	1	1	0	stim012_stimuli_original_vehicles_boats_4.png	F	0	0	0	251.41767652519	251.617692909203
69238	100	421	11	1	10	25	9	0	0	0	0	stim010_stimuli_original_vehicles_boats_2.png	A	0	0	0	251.817698077764	252.017682278994
69338	100	422	11	1	10	26	11	5	1	1	1	stim012_stimuli_original_vehicles_boats_4.png	F	0	0	0	252.217682084069	252.417684570886
69438	100	423	11	1	10	27	6	4	0	0	0	stim007_stimuli_original_animals_fish_3.png	E	0	0	0	252.617691202555	252.817698321771
69538	100	424	11	1	10	28	12	8	0	0	0	stim013_stimuli_original_vehicles_planes_1.png	K	d	253.209464974701	1	253.017703002784	253.218010007869
69638	100	425	11	1	10	29	4	3	0	0	0	stim005_stimuli_original_animals_fish_1.png	D	0	0	0	253.417723092716	253.617728017736
69738	100	426	11	1	10	30	13	14	0	0	0	stim014_stimuli_original_vehicles_planes_2.png	V	0	0	0	253.81773074856	254.017733478919
69838	100	427	11	1	10	31	7	5	0	0	0	stim008_stimuli_original_animals_fish_4.png	F	0	0	0	254.21774547454	254.417767466046
69938	100	428	11	1	10	32	2	6	0	0	0	stim003_stimuli_original_animals_birds_3.png	G	0	0	0	254.617792627309	254.817777072079
70038	100	429	11	1	10	33	14	13	0	0	0	stim015_stimuli_original_vehicles_planes_3.png	U	0	0	0	255.017790530343	255.217784240376
70138	100	430	11	1	10	34	1	12	0	0	0	stim002_stimuli_original_animals_birds_2.png	T	0	0	0	255.417777462397	255.617773610167
70238	100	431	11	1	10	35	8	10	0	0	0	stim009_stimuli_original_vehicles_boats_1.png	Q	0	0	0	255.817781948484	256.017813204788
71271.25	100	432	12	0	37	0	2	12	0	0	0	stim003_stimuli_original_animals_birds_3.png	T	0	0	0	259.951249815524	260.151255472098
71371.25	100	433	12	0	37	1	3	13	0	0	0	stim004_stimuli_original_animals_birds_4.png	U	0	0	0	260.351227238774	260.551270685624
71471.25	100	434	12	0	37	2	11	10	0	0	0	stim012_stimuli_original_vehicles_boats_4.png	Q	0	0	0	260.75126878405	260.951251522172
71571.25	100	435	12	0	37	3	0	11	0	0	0	stim001_stimuli_original_animals_birds_1.png	R	0	0	0	261.151275951881	261.351280389354
71671.25	100	436	12	0	37	4	6	4	0	0	0	stim007_stimuli_original_animals_fish_3.png	E	0	0	0	261.551293360069	261.751728852279
71771.25	100	437	12	0	37	5	13	15	1	0	0	stim014_stimuli_original_vehicles_planes_2.png	Y	0	0	0	261.951313205995	262.151272538584
71871.25	100	438	12	0	37	6	4	5	0	0	0	stim005_stimuli_original_animals_fish_1.png	F	0	0	0	262.351290385704	262.551296041813
71971.25	100	439	12	0	37	7	13	2	1	0	1	stim014_stimuli_original_vehicles_planes_2.png	C	0	0	0	262.751300723292	262.951304429211
72071.25	100	440	12	0	37	8	7	8	0	0	0	stim008_stimuli_original_animals_fish_4.png	K	0	0	0	263.151329590008	263.351334271487
72171.25	100	441	12	0	37	9	9	14	0	0	0	stim010_stimuli_original_vehicles_boats_2.png	V	0	0	0	263.551340171602	263.751340951771
72271.25	100	442	12	0	37	10	1	7	0	0	0	stim002_stimuli_original_animals_birds_2.png	J	0	0	0	263.951349533629	264.151351776905
72371.25	100	443	12	0	37	11	14	6	0	0	0	stim015_stimuli_original_vehicles_planes_3.png	G	0	0	0	264.351339634974	264.551379912533
72471.25	100	444	12	0	37	12	8	2	0	1	0	stim009_stimuli_original_vehicles_boats_1.png	C	0	0	0	264.751375328749	264.951379278675
72571.25	100	445	12	0	37	13	12	1	0	0	0	stim013_stimuli_original_vehicles_planes_1.png	B	0	0	0	265.151369574945	265.351371330209
72671.25	100	446	12	0	37	14	5	2	0	1	0	stim006_stimuli_original_animals_fish_2.png	C	0	0	0	265.55139527237	265.751375816297
72771.25	100	447	12	0	37	15	13	3	0	0	0	stim014_stimuli_original_vehicles_planes_2.png	D	0	0	0	265.951386592817	266.151378108189
72871.25	100	448	12	0	37	16	10	0	0	0	0	stim011_stimuli_original_vehicles_boats_3.png	A	0	0	0	266.351398149505	266.551391859073
72971.25	100	449	12	0	37	17	15	9	0	0	0	stim016_stimuli_original_vehicles_planes_4.png	L	0	0	0	266.751428235322	266.9514375492
73071.25	100	450	12	0	37	18	9	15	0	0	0	stim010_stimuli_original_vehicles_boats_2.png	Y	0	0	0	267.151422237977	267.351425455883
73171.25	100	451	12	0	37	19	0	10	0	0	0	stim001_stimuli_original_animals_birds_1.png	Q	0	0	0	267.551427942701	267.751422871836
73271.25	100	452	12	0	37	20	3	13	0	0	0	stim004_stimuli_original_animals_birds_4.png	U	0	0	0	267.951438767835	268.151444424409
73371.25	100	453	12	0	37	21	2	5	1	0	0	stim003_stimuli_original_animals_birds_3.png	F	0	0	0	268.351447155233	268.551455005538
73471.25	100	454	12	0	37	22	1	12	0	0	0	stim002_stimuli_original_animals_birds_2.png	T	0	0	0	268.751465050504	268.951469731983
73571.25	100	455	12	0	37	23	2	8	1	0	1	stim003_stimuli_original_animals_birds_3.png	K	0	0	0	269.151473437902	269.351465684362
73671.25	100	456	12	0	37	24	6	14	0	0	0	stim007_stimuli_original_animals_fish_3.png	V	0	0	0	269.551487676334	269.751485043205
73771.25	100	457	12	0	37	25	7	1	0	0	0	stim008_stimuli_original_animals_fish_4.png	B	0	0	0	269.951491430867	270.15149489278
73871.25	100	458	12	0	37	26	14	9	0	0	0	stim015_stimuli_original_vehicles_planes_3.png	L	d	270.543265690561	1	270.351501036901	270.551508156117
73971.25	100	459	12	0	37	27	8	7	0	0	0	stim009_stimuli_original_vehicles_boats_1.png	J	0	0	0	270.751517957542	270.95151459286
74071.25	100	460	12	0	37	28	2	13	0	1	0	stim003_stimuli_original_animals_birds_3.png	U	0	0	0	271.15151561657	271.351525905542
74171.25	100	461	12	0	37	29	5	4	0	0	0	stim006_stimuli_original_animals_fish_2.png	E	0	0	0	271.551533999853	271.75154233817
74271.25	100	462	12	0	37	30	15	13	0	1	0	stim016_stimuli_original_vehicles_planes_4.png	U	0	0	0	271.951545556542	272.151572667994
74371.5	100	463	12	0	37	31	4	6	0	0	0	stim005_stimuli_original_animals_fish_1.png	G	0	0	0	272.351944770198	272.551563500892
74471.5	100	464	12	0	37	32	11	0	0	0	0	stim012_stimuli_original_vehicles_boats_4.png	A	0	0	0	272.751590856351	272.951598463114
74571.5	100	465	12	0	37	33	10	11	0	0	0	stim011_stimuli_original_vehicles_boats_3.png	R	0	0	0	273.151601193938	273.351607094053
74671.5	100	466	12	0	37	34	13	3	0	0	0	stim014_stimuli_original_vehicles_planes_2.png	D	0	0	0	273.551613969263	273.751616212539
74771.5	100	467	12	0	37	35	12	2	0	0	0	stim013_stimuli_original_vehicles_planes_1.png	C	0	0	0	273.95159748802	274.151628500316
77809	100	468	13	1	29	0	8	2	0	0	0	stim009_stimuli_original_vehicles_boats_1.png	C	0	0	0	286.101950134151	286.301947501022
77909	100	469	13	1	29	1	5	13	0	0	0	stim006_stimuli_original_animals_fish_2.png	U	0	0	0	286.501955595333	286.701957594603
78009	100	470	13	1	29	2	0	5	0	0	0	stim001_stimuli_original_animals_birds_1.png	F	0	0	0	286.901970565319	287.101974758785
78109	100	471	13	1	29	3	12	10	0	0	0	stim013_stimuli_original_vehicles_planes_1.png	Q	0	0	0	287.301957496908	287.501960227732
78209	100	472	13	1	29	4	7	14	1	0	0	stim008_stimuli_original_animals_fish_4.png	V	0	0	0	287.701972222887	287.901993239298
78309	100	473	13	1	29	5	2	6	0	0	0	stim003_stimuli_original_animals_birds_3.png	G	0	0	0	288.101998164319	288.301999188494
78409	100	474	13	1	29	6	7	11	1	0	0	stim008_stimuli_original_animals_fish_4.png	R	0	0	0	288.502009477001	288.702011720277
78509	100	475	13	1	29	7	3	12	0	0	0	stim004_stimuli_original_animals_birds_4.png	T	0	0	0	288.90230750991	289.102031322662
78609	100	476	13	1	29	8	15	15	0	0	0	stim016_stimuli_original_vehicles_planes_4.png	Y	0	0	0	289.302029664628	289.502032395452
78709	100	477	13	1	29	9	1	9	0	0	0	stim002_stimuli_original_animals_birds_2.png	L	0	0	0	289.702041708864	289.902035418432
78809	100	478	13	1	29	10	7	4	0	0	0	stim008_stimuli_original_animals_fish_4.png	E	0	0	0	290.102053509094	290.302031858824
78909	100	479	13	1	29	11	14	8	0	1	0	stim015_stimuli_original_vehicles_planes_3.png	K	0	0	0	290.502039465588	290.702027811669
79009	100	480	13	1	29	12	9	1	0	0	0	stim010_stimuli_original_vehicles_boats_2.png	B	0	0	0	290.90205662977	291.10205667885
79109	100	481	13	1	29	13	11	8	0	1	1	stim012_stimuli_original_vehicles_boats_4.png	K	0	0	0	291.30206355406	291.502059458289
79209	100	482	13	1	29	14	4	3	0	0	0	stim005_stimuli_original_animals_fish_1.png	D	d	291.893843177706	1	291.702073647641	291.902101490647
79309	100	483	13	1	29	15	13	7	0	0	0	stim014_stimuli_original_vehicles_planes_2.png	J	0	0	0	292.102086179424	292.302079157904
79409	100	484	13	1	29	16	6	8	0	0	0	stim007_stimuli_original_animals_fish_3.png	K	0	0	0	292.502093103714	292.70209729718
79509	100	485	13	1	29	17	10	0	0	0	0	stim011_stimuli_original_vehicles_boats_3.png	A	0	0	0	292.902132698335	293.102133966051
79609	100	486	13	1	29	18	0	10	0	0	0	stim001_stimuli_original_animals_birds_1.png	Q	0	0	0	293.302135477774	293.502140402794
79709	100	487	13	1	29	19	8	6	0	0	0	stim009_stimuli_original_vehicles_boats_1.png	G	0	0	0	293.702136063017	293.902126846835
79809	100	488	13	1	29	20	7	13	0	0	0	stim008_stimuli_original_animals_fish_4.png	U	0	0	0	294.102314629126	294.302164003719
79909	100	489	13	1	29	21	3	4	0	0	0	stim004_stimuli_original_animals_birds_4.png	E	0	0	0	294.502146985848	294.702149960212
80009	100	490	13	1	29	22	8	11	1	0	0	stim009_stimuli_original_vehicles_boats_1.png	R	0	0	0	294.90217902232	295.102182971779
80109	100	491	13	1	29	23	1	9	0	0	0	stim002_stimuli_original_animals_birds_2.png	L	0	0	0	295.302184727509	295.502185751218
80209	100	492	13	1	29	24	8	14	1	0	0	stim009_stimuli_original_vehicles_boats_1.png	V	0	0	0	295.702193601988	295.902204378508
80309	100	493	13	1	29	25	4	7	0	0	0	stim005_stimuli_original_animals_fish_1.png	J	0	0	0	296.102195406333	296.302193504293
80409	100	494	13	1	29	26	9	1	0	0	0	stim010_stimuli_original_vehicles_boats_2.png	B	0	0	0	296.502224029507	296.702211400028
80509	100	495	13	1	29	27	15	15	0	0	0	stim016_stimuli_original_vehicles_planes_4.png	Y	0	0	0	296.902231684886	297.102244168054
80609	100	496	13	1	29	28	12	3	0	0	0	stim013_stimuli_original_vehicles_planes_1.png	D	0	0	0	297.302241291385	297.502219641116
80709	100	497	13	1	29	29	11	7	0	1	0	stim012_stimuli_original_vehicles_boats_4.png	J	0	0	0	297.702243582811	297.902258991729
80809	100	498	13	1	29	30	6	2	0	0	0	stim007_stimuli_original_animals_fish_3.png	C	d	298.294047831092	0	298.102254895959	298.302265672013
80909	100	499	13	1	29	31	14	7	0	1	1	stim015_stimuli_original_vehicles_planes_3.png	J	0	0	0	298.502269621938	298.702275522053
81009	100	500	13	1	29	32	10	12	0	0	0	stim011_stimuli_original_vehicles_boats_3.png	T	0	0	0	298.902275814675	299.102290492039
81109	100	501	13	1	29	33	5	0	0	0	0	stim006_stimuli_original_animals_fish_2.png	A	0	0	0	299.302270791959	299.502662398852
81209	100	502	13	1	29	34	13	5	0	0	0	stim014_stimuli_original_vehicles_planes_2.png	F	0	0	0	299.70228966279	299.902285567019
81309	100	503	13	1	29	35	2	8	0	0	0	stim003_stimuli_original_animals_birds_3.png	K	0	0	0	300.102289516479	300.30232516164
82196.5	100	504	14	0	47	0	3	5	0	0	0	stim004_stimuli_original_animals_birds_4.png	F	0	0	0	303.652388698421	303.852419223171
82296.5	100	505	14	0	47	1	14	13	0	0	0	stim015_stimuli_original_vehicles_planes_3.png	U	0	0	0	304.052409763448	304.252403473016
82396.5	100	506	14	0	47	2	7	6	0	0	0	stim008_stimuli_original_animals_fish_4.png	G	0	0	0	304.45240912959	304.652404302265
82496.5	100	507	14	0	47	3	1	15	0	0	0	stim002_stimuli_original_animals_birds_2.png	Y	0	0	0	304.85244555492	305.052434388082
82596.5	100	508	14	0	47	4	5	2	1	0	0	stim006_stimuli_original_animals_fish_2.png	C	0	0	0	305.252430292312	305.452418881934
82696.5	100	509	14	0	47	5	4	7	0	0	0	stim005_stimuli_original_animals_fish_1.png	J	0	0	0	305.652429414447	305.852474324405
82796.5	100	510	14	0	47	6	5	11	1	0	1	stim006_stimuli_original_animals_fish_2.png	R	0	0	0	306.052476323675	306.252462719101
82896.5	100	511	14	0	47	7	13	14	0	0	0	stim014_stimuli_original_vehicles_planes_2.png	V	d	306.644226446282	1	306.452458866872	306.652464766987
82996.5	100	512	14	0	47	8	0	12	0	0	0	stim001_stimuli_original_animals_birds_1.png	T	0	0	0	306.852477737702	307.052478273865
83096.75	100	513	14	0	47	9	9	10	0	0	0	stim010_stimuli_original_vehicles_boats_2.png	Q	0	0	0	307.252933027223	307.452493975405
83196.5	100	514	14	0	47	10	5	5	0	1	0	stim006_stimuli_original_animals_fish_2.png	F	0	0	0	307.652499143966	307.852549661417
83296.5	100	515	14	0	47	11	15	4	0	0	0	stim016_stimuli_original_vehicles_planes_4.png	E	0	0	0	308.052503386512	308.25250002183
83396.5	100	516	14	0	47	12	10	5	0	1	0	stim011_stimuli_original_vehicles_boats_3.png	F	0	0	0	308.452511041891	308.652512553614
83496.5	100	517	14	0	47	13	2	8	0	0	0	stim003_stimuli_original_animals_birds_3.png	K	0	0	0	308.852556244005	309.052551173139
83596.5	100	518	14	0	47	14	6	9	0	0	0	stim007_stimuli_original_animals_fish_3.png	L	0	0	0	309.252539031208	309.452540298924
83696.5	100	519	14	0	47	15	8	3	0	0	0	stim009_stimuli_original_vehicles_boats_1.png	D	0	0	0	309.652551562991	309.852598423138
83796.5	100	520	14	0	47	16	12	1	0	0	0	stim013_stimuli_original_vehicles_planes_1.png	B	0	0	0	310.052583111916	310.252585355192
83896.5	100	521	14	0	47	17	11	0	0	0	0	stim012_stimuli_original_vehicles_boats_4.png	A	0	0	0	310.452589792199	310.652579600923
83996.5	100	522	14	0	47	18	0	11	0	0	0	stim001_stimuli_original_animals_birds_1.png	R	d	311.044366734102	0	310.852602323983	311.052603104152
84096.5	100	523	14	0	47	19	1	12	0	0	0	stim002_stimuli_original_animals_birds_2.png	T	0	0	0	311.252631435171	311.452599301003
84196.5	100	524	14	0	47	20	3	8	0	0	0	stim004_stimuli_original_animals_birds_4.png	K	0	0	0	311.652608614415	311.852634750772
84296.5	100	525	14	0	47	21	9	6	0	0	0	stim010_stimuli_original_vehicles_boats_2.png	G	0	0	0	312.05261358805	312.252611686476
84396.5	100	526	14	0	47	22	8	2	0	0	0	stim009_stimuli_original_vehicles_boats_1.png	C	0	0	0	312.452618805692	312.652821216267
84496.5	100	527	14	0	47	23	5	10	1	0	0	stim006_stimuli_original_animals_fish_2.png	Q	0	0	0	312.852650842164	313.05265210988
84596.5	100	528	14	0	47	24	4	15	0	0	0	stim005_stimuli_original_animals_fish_1.png	Y	0	0	0	313.252645819914	313.452665373217
84696.5	100	529	14	0	47	25	5	5	1	0	1	stim006_stimuli_original_animals_fish_2.png	F	0	0	0	313.652673467994	313.852676198352
84796.5	100	530	14	0	47	26	10	9	0	0	0	stim011_stimuli_original_vehicles_boats_3.png	L	d	314.244447971229	1	314.052684780676	314.252688486595
84896.5	100	531	14	0	47	27	12	0	0	0	0	stim013_stimuli_original_vehicles_planes_1.png	A	0	0	0	314.452691216953	314.652683463879
84996.5	100	532	14	0	47	28	14	13	0	0	0	stim015_stimuli_original_vehicles_planes_3.png	U	0	0	0	314.852689120453	315.05269453302
85096.5	100	533	14	0	47	29	11	5	0	1	0	stim012_stimuli_original_vehicles_boats_4.png	F	0	0	0	315.252715305425	315.452715110499
85196.75	100	534	14	0	47	30	7	4	0	0	0	stim008_stimuli_original_animals_fish_4.png	E	0	0	0	315.65272613056	315.852729104925
85296.75	100	535	14	0	47	31	2	5	0	1	0	stim003_stimuli_original_animals_birds_3.png	F	0	0	0	316.052734029945	316.252740174066
85396.75	100	536	14	0	47	32	15	1	0	0	0	stim016_stimuli_original_vehicles_planes_4.png	B	0	0	0	316.452731933445	316.652732226066
85496.75	100	537	14	0	47	33	6	7	0	0	0	stim007_stimuli_original_animals_fish_3.png	J	0	0	0	316.852757386863	317.052765725181
85596.75	100	538	14	0	47	34	13	14	0	0	0	stim014_stimuli_original_vehicles_planes_2.png	V	0	0	0	317.252777476795	317.452770942822
85696.75	100	539	14	0	47	35	5	3	0	0	0	stim006_stimuli_original_animals_fish_2.png	D	0	0	0	317.65276562795	317.852783718612
86675.75	100	540	15	1	3	0	14	14	0	0	0	stim015_stimuli_original_vehicles_planes_3.png	V	0	0	0	321.569523235317	321.769539131783
86775.75	100	541	15	1	3	1	6	13	0	0	0	stim007_stimuli_original_animals_fish_3.png	U	0	0	0	321.969548932742	322.169547031168
86875.75	100	542	15	1	3	2	15	10	0	0	0	stim016_stimuli_original_vehicles_planes_4.png	Q	0	0	0	322.369550980628	322.569572241046
86975.75	100	543	15	1	3	3	7	1	0	0	0	stim008_stimuli_original_animals_fish_4.png	B	0	0	0	322.769579360262	322.969571607187
87075.75	100	544	15	1	3	4	9	15	0	0	0	stim010_stimuli_original_vehicles_boats_2.png	Y	0	0	0	323.169595061801	323.369594378863
87175.75	100	545	15	1	3	5	10	4	0	0	0	stim011_stimuli_original_vehicles_boats_3.png	E	0	0	0	323.569580286741	323.769585211761
87275.75	100	546	15	1	3	6	4	3	0	0	0	stim005_stimuli_original_animals_fish_1.png	D	0	0	0	323.969595256727	324.169596280437
87375.75	100	547	15	1	3	7	2	2	0	1	0	stim003_stimuli_original_animals_birds_3.png	C	0	0	0	324.36960364366	324.569604423828
87475.75	100	548	15	1	3	8	6	0	1	0	0	stim007_stimuli_original_animals_fish_3.png	A	0	0	0	324.769615931902	324.969616712071
87575.75	100	549	15	1	3	9	13	2	0	1	1	stim014_stimuli_original_vehicles_planes_2.png	C	0	0	0	325.169613347389	325.369617296848
87675.75	100	550	15	1	3	10	6	12	1	0	0	stim007_stimuli_original_animals_fish_3.png	T	f	325.761390045285	1	325.569623196963	325.769632754382
87775.75	100	551	15	1	3	11	11	11	0	0	0	stim012_stimuli_original_vehicles_boats_4.png	R	0	0	0	325.969666448887	326.169669423252
87875.75	100	552	15	1	3	12	8	8	0	0	0	stim009_stimuli_original_vehicles_boats_1.png	K	0	0	0	326.369649479631	326.569651478902
87975.75	100	553	15	1	3	13	0	5	0	0	0	stim001_stimuli_original_animals_birds_1.png	F	0	0	0	326.769691024907	326.969663767144
88075.75	100	554	15	1	3	14	1	2	0	0	0	stim002_stimuli_original_animals_birds_2.png	C	0	0	0	327.169696242549	327.36969946092
88175.75	100	555	15	1	3	15	12	9	0	0	0	stim013_stimuli_original_vehicles_planes_1.png	L	0	0	0	327.569705604576	327.769713455345
88275.75	100	556	15	1	3	16	5	6	0	0	0	stim006_stimuli_original_animals_fish_2.png	G	0	0	0	327.969720574562	328.169692829251
88375.75	100	557	15	1	3	17	3	7	0	0	0	stim004_stimuli_original_animals_birds_4.png	J	0	0	0	328.369738226291	328.569731448777
88475.75	100	558	15	1	3	18	7	3	0	0	0	stim008_stimuli_original_animals_fish_4.png	D	0	0	0	328.76974198129	328.969745199662
88575.75	100	559	15	1	3	19	6	5	0	0	0	stim007_stimuli_original_animals_fish_3.png	F	0	0	0	329.169750124216	329.369736519642
88676	100	560	15	1	3	20	9	12	0	0	0	stim010_stimuli_original_vehicles_boats_2.png	T	0	0	0	329.569760218263	329.769749295432
88776	100	561	15	1	3	21	2	1	0	0	0	stim003_stimuli_original_animals_birds_3.png	B	0	0	0	329.969772018492	330.169756951276
88876	100	562	15	1	3	22	5	0	0	0	0	stim006_stimuli_original_animals_fish_2.png	A	0	0	0	330.369778942782	330.569755341858
88976	100	563	15	1	3	23	8	8	0	0	0	stim009_stimuli_original_vehicles_boats_1.png	K	0	0	0	330.769775383174	330.969798837323
89076	100	564	15	1	3	24	11	11	0	0	0	stim012_stimuli_original_vehicles_boats_4.png	R	0	0	0	331.169802543242	331.369805274066
89176	100	565	15	1	3	25	12	6	0	1	0	stim013_stimuli_original_vehicles_planes_1.png	G	0	0	0	331.569818488322	331.769811466802
89276	100	566	15	1	3	26	2	13	1	0	0	stim003_stimuli_original_animals_birds_3.png	U	0	0	0	331.969829313457	332.169832775835
89376	100	567	15	1	3	27	0	6	0	1	1	stim001_stimuli_original_animals_birds_1.png	G	0	0	0	332.36982380366	332.569828484673
89476	100	568	15	1	3	28	2	2	1	0	0	stim003_stimuli_original_animals_birds_3.png	C	0	0	0	332.769837066997	332.969839553814
89576	100	569	15	1	3	29	3	4	0	0	0	stim004_stimuli_original_animals_birds_4.png	E	f	333.162394393701	1	333.169846185483	333.369839163497
89676	100	570	15	1	3	30	4	10	0	0	0	stim005_stimuli_original_animals_fish_1.png	Q	0	0	0	333.569845551625	333.769850232638
89776	100	571	15	1	3	31	15	9	0	0	0	stim016_stimuli_original_vehicles_planes_4.png	L	0	0	0	333.969853694551	334.169863251969
89876	100	572	15	1	3	32	1	7	0	0	0	stim002_stimuli_original_animals_birds_2.png	J	0	0	0	334.369866957888	334.569873833098
89976	100	573	15	1	3	33	10	15	0	0	0	stim011_stimuli_original_vehicles_boats_3.png	Y	0	0	0	334.769899238367	334.969902212732
90076	100	574	15	1	3	34	13	6	0	0	0	stim014_stimuli_original_vehicles_planes_2.png	G	0	0	0	335.169911282603	335.369922058657
90176	100	575	15	1	3	35	14	14	0	0	0	stim015_stimuli_original_vehicles_planes_3.png	V	0	0	0	335.569937223569	335.769920937251
91026	100	576	16	0	7	0	0	6	0	0	0	stim001_stimuli_original_animals_birds_1.png	G	0	0	0	338.969998273533	339.170005880296
91126	100	577	16	0	7	1	11	15	0	0	0	stim012_stimuli_original_vehicles_boats_4.png	Y	0	0	0	339.370011049323	339.570006221998
91226	100	578	16	0	7	2	6	3	0	0	0	stim007_stimuli_original_animals_fish_3.png	D	0	0	0	339.770013828762	339.970013145823
91326	100	579	16	0	7	3	12	9	0	0	0	stim013_stimuli_original_vehicles_planes_1.png	L	0	0	0	340.170050497632	340.370039818808
91426	100	580	16	0	7	4	4	4	0	0	0	stim005_stimuli_original_animals_fish_1.png	E	0	0	0	340.570058397017	340.770046499092
91526	100	581	16	0	7	5	7	1	0	0	0	stim008_stimuli_original_animals_fish_4.png	B	0	0	0	340.9700697097	341.170074878726
91626	100	582	16	0	7	6	11	7	1	0	0	stim012_stimuli_original_vehicles_boats_4.png	J	0	0	0	341.370071270037	341.570069124456
91726	100	583	16	0	7	7	5	0	0	1	0	stim006_stimuli_original_animals_fish_2.png	A	0	0	0	341.770089165773	341.970095797442
91826	100	584	16	0	7	8	11	10	1	0	1	stim012_stimuli_original_vehicles_boats_4.png	Q	0	0	0	342.170088287909	342.370084679686
91926	100	585	16	0	7	9	14	0	0	1	0	stim015_stimuli_original_vehicles_planes_3.png	A	0	0	0	342.570111060049	342.770116960164
92026	100	586	16	0	7	10	9	13	0	0	0	stim010_stimuli_original_vehicles_boats_2.png	U	f	342.962771030609	1	342.970101161394	343.170118032955
92126	100	587	16	0	7	11	1	11	0	0	0	stim002_stimuli_original_animals_birds_2.png	R	0	0	0	343.370112717617	343.570109596942
92226	100	588	16	0	7	12	8	5	0	0	0	stim009_stimuli_original_vehicles_boats_1.png	F	0	0	0	343.770120129455	343.970121885184
92326	100	589	16	0	7	13	2	0	0	0	0	stim003_stimuli_original_animals_birds_3.png	A	0	0	0	344.170129491948	344.370138561353
92426	100	590	16	0	7	14	10	2	0	0	0	stim011_stimuli_original_vehicles_boats_3.png	C	0	0	0	344.570562107489	344.77017254848
92526	100	591	16	0	7	15	15	14	0	0	0	stim016_stimuli_original_vehicles_planes_4.png	V	0	0	0	344.970173572656	345.170179960318
92626	100	592	16	0	7	16	3	12	0	0	0	stim004_stimuli_original_animals_birds_4.png	T	0	0	0	345.370186104439	345.570174938068
92726	100	593	16	0	7	17	13	8	0	0	0	stim014_stimuli_original_vehicles_planes_2.png	K	0	0	0	345.770179375075	345.970181618351
92826	100	594	16	0	7	18	8	13	0	0	0	stim009_stimuli_original_vehicles_boats_1.png	U	0	0	0	346.170208242256	346.37019317504
92926	100	595	16	0	7	19	12	3	0	0	0	stim013_stimuli_original_vehicles_planes_1.png	D	0	0	0	346.570205414202	346.770220091566
93026	100	596	16	0	7	20	14	15	0	0	0	stim015_stimuli_original_vehicles_planes_3.png	Y	0	0	0	346.970211606938	347.170234085992
93126	100	597	16	0	7	21	2	10	0	0	0	stim003_stimuli_original_animals_birds_3.png	Q	0	0	0	347.370229502674	347.570229551289
93226	100	598	16	0	7	22	0	2	0	0	0	stim001_stimuli_original_animals_birds_1.png	C	0	0	0	347.770223260857	347.970250372775
93326	100	599	16	0	7	23	5	8	0	0	0	stim006_stimuli_original_animals_fish_2.png	K	0	0	0	348.170259929728	348.370263148099
93426	100	600	16	0	7	24	11	1	0	0	0	stim012_stimuli_original_vehicles_boats_4.png	B	0	0	0	348.570267829113	348.770274704788
93526	100	601	16	0	7	25	13	9	0	0	0	stim014_stimuli_original_vehicles_planes_2.png	L	0	0	0	348.970256467815	349.170283823274
93626	100	602	16	0	7	26	0	14	1	0	0	stim001_stimuli_original_animals_birds_1.png	V	0	0	0	349.370297037531	349.5702978177
93726	100	603	16	0	7	27	10	11	0	1	0	stim011_stimuli_original_vehicles_boats_3.png	R	f	349.975850675255	0	349.770285188686	349.970646806527
93826	100	604	16	0	7	28	0	5	1	0	1	stim001_stimuli_original_animals_birds_1.png	F	0	0	0	350.170296988916	350.370298013091
93926	100	605	16	0	7	29	7	11	0	1	0	stim008_stimuli_original_animals_fish_4.png	R	0	0	0	350.570320248138	350.770327855367
94026	100	606	16	0	7	30	1	7	0	0	0	stim002_stimuli_original_animals_birds_2.png	J	0	0	0	350.970317420084	351.170338192955
94126	100	607	16	0	7	31	4	4	0	0	0	stim005_stimuli_original_animals_fish_1.png	E	0	0	0	351.370345555712	351.570317566395
94226	100	608	16	0	7	32	9	12	0	0	0	stim010_stimuli_original_vehicles_boats_2.png	T	0	0	0	351.770350773353	351.970358624123
94326	100	609	16	0	7	33	3	6	0	0	0	stim004_stimuli_original_animals_birds_4.png	G	0	0	0	352.170366474427	352.370354088955
94426	100	610	16	0	7	34	15	11	0	0	0	stim016_stimuli_original_vehicles_planes_4.png	R	0	0	0	352.570337802637	352.770370278042
94526	100	611	16	0	7	35	6	0	0	0	0	stim007_stimuli_original_animals_fish_3.png	A	0	0	0	352.970365450718	353.17036696244
99605.25	100	612	17	1	5	0	9	10	0	0	0	stim010_stimuli_original_vehicles_boats_2.png	Q	0	0	0	373.287573715672	373.48757644603
99705.25	100	613	17	1	5	1	0	11	0	0	0	stim001_stimuli_original_animals_birds_1.png	R	0	0	0	373.687581615057	373.88760701986
99805.25	100	614	17	1	5	2	4	12	0	0	0	stim005_stimuli_original_animals_fish_1.png	T	0	0	0	374.087601948529	374.287598827854
99905.25	100	615	17	1	5	3	11	9	0	0	0	stim012_stimuli_original_vehicles_boats_4.png	L	0	0	0	374.487600339577	374.688044121489
100005.25	100	616	17	1	5	4	6	8	0	0	0	stim007_stimuli_original_animals_fish_3.png	K	0	0	0	374.887637252454	375.087620965671
100105.25	100	617	17	1	5	5	14	5	0	0	0	stim015_stimuli_original_vehicles_planes_3.png	F	0	0	0	375.2876227214	375.487628377508
100205.25	100	618	17	1	5	6	13	2	1	0	0	stim014_stimuli_original_vehicles_planes_2.png	C	0	0	0	375.687693035696	375.887659195345
100305.25	100	619	17	1	5	7	1	0	0	0	0	stim002_stimuli_original_animals_birds_2.png	A	0	0	0	376.087659487966	376.287688793615
100405.25	100	620	17	1	5	8	13	3	1	0	0	stim014_stimuli_original_vehicles_planes_2.png	D	0	0	0	376.487672263291	376.687674506567
100505.25	100	621	17	1	5	9	8	7	0	0	0	stim009_stimuli_original_vehicles_boats_1.png	J	0	0	0	376.887679431122	377.087687769439
100605.25	100	622	17	1	5	10	10	13	0	0	0	stim011_stimuli_original_vehicles_boats_3.png	U	0	0	0	377.287688062061	377.487709810026
100705.25	100	623	17	1	5	11	5	1	0	0	0	stim006_stimuli_original_animals_fish_2.png	B	0	0	0	377.687697424553	377.887712833472
100805.25	100	624	17	1	5	12	15	3	0	1	0	stim016_stimuli_original_vehicles_planes_4.png	D	0	0	0	378.087698253337	378.287702203263
100905.25	100	625	17	1	5	13	13	6	0	0	0	stim014_stimuli_original_vehicles_planes_2.png	G	f	378.679470562842	0	378.487707859371	378.687728388235
101005.25	100	626	17	1	5	14	3	3	0	1	1	stim004_stimuli_original_animals_birds_4.png	D	0	0	0	378.887720391154	379.087720196228
101105.25	100	627	17	1	5	15	12	14	0	0	0	stim013_stimuli_original_vehicles_planes_1.png	V	0	0	0	379.287726583891	379.487739067059
101205.25	100	628	17	1	5	16	2	15	0	0	0	stim003_stimuli_original_animals_birds_3.png	Y	0	0	0	379.687744236086	379.887740627397
101305.25	100	629	17	1	5	17	7	4	0	0	0	stim008_stimuli_original_animals_fish_4.png	E	0	0	0	380.087753354572	380.287750477437
101405.25	100	630	17	1	5	18	4	7	0	0	0	stim005_stimuli_original_animals_fish_1.png	J	0	0	0	380.487791242544	380.687778613064
101505.25	100	631	17	1	5	19	15	2	0	0	0	stim016_stimuli_original_vehicles_planes_4.png	C	0	0	0	380.887794265524	381.087799678091
101605.25	100	632	17	1	5	20	14	12	0	0	0	stim015_stimuli_original_vehicles_planes_3.png	T	0	0	0	381.287788755726	381.487788560335
101705.25	100	633	17	1	5	21	3	3	1	0	0	stim004_stimuli_original_animals_birds_4.png	D	0	0	0	381.687790072057	381.887794265524
101805.25	100	634	17	1	5	22	6	13	0	0	0	stim007_stimuli_original_animals_fish_3.png	U	0	0	0	382.087802359834	382.287807284854
101905.25	100	635	17	1	5	23	3	15	1	0	0	stim004_stimuli_original_animals_birds_4.png	Y	0	0	0	382.487815867178	382.687818598002
102005.25	100	636	17	1	5	24	1	5	0	0	0	stim002_stimuli_original_animals_birds_2.png	F	0	0	0	382.88782425411	383.087827960029
102105.25	100	637	17	1	5	25	13	10	0	0	0	stim014_stimuli_original_vehicles_planes_2.png	Q	0	0	0	383.28783312859	383.487850731704
102205.25	100	638	17	1	5	26	7	8	0	0	0	stim008_stimuli_original_animals_fish_4.png	K	0	0	0	383.687850049231	383.887895934284
102305.25	100	639	17	1	5	27	3	13	0	1	0	stim004_stimuli_original_animals_birds_4.png	U	0	0	0	384.08786453167	384.287883109879
102405.25	100	640	17	1	5	28	0	1	0	0	0	stim001_stimuli_original_animals_birds_1.png	B	0	0	0	384.487869992852	384.687895154115
102505.25	100	641	17	1	5	29	2	13	0	1	1	stim003_stimuli_original_animals_birds_3.png	U	0	0	0	384.887882037088	385.087882085703
102605.5	100	642	17	1	5	30	5	14	0	0	0	stim006_stimuli_original_animals_fish_2.png	V	0	0	0	385.28829709813	385.487903394736
102705.25	100	643	17	1	5	31	8	6	0	0	0	stim009_stimuli_original_vehicles_boats_1.png	G	f	385.680908062961	1	385.687901736703	385.887904955074
102805.5	100	644	17	1	5	32	9	11	0	0	0	stim010_stimuli_original_vehicles_boats_2.png	R	0	0	0	386.087936211377	386.287936991546
102905.5	100	645	17	1	5	33	12	4	0	0	0	stim013_stimuli_original_vehicles_planes_1.png	E	0	0	0	386.487943379674	386.687945866492
103005.5	100	646	17	1	5	34	11	0	0	0	0	stim012_stimuli_original_vehicles_boats_4.png	A	0	0	0	386.887954204809	387.087943281978
103105.5	100	647	17	1	5	35	10	9	0	0	0	stim011_stimuli_original_vehicles_boats_3.png	L	0	0	0	387.287965273485	387.487970442511
104197	100	648	18	0	16	0	14	8	0	0	0	stim015_stimuli_original_vehicles_planes_3.png	K	0	0	0	391.654725855682	391.854754430242
104297	100	649	18	0	16	1	5	3	0	0	0	stim006_stimuli_original_animals_fish_2.png	D	0	0	0	392.054735705722	392.254744043574
104397	100	650	18	0	16	2	13	11	0	0	0	stim014_stimuli_original_vehicles_planes_2.png	R	0	0	0	392.454751650803	392.654770960566
104497	100	651	18	0	16	3	10	7	0	0	0	stim011_stimuli_original_vehicles_boats_3.png	J	0	0	0	392.854780517519	393.054779347498
104597	100	652	18	0	16	4	1	12	0	0	0	stim002_stimuli_original_animals_birds_2.png	T	0	0	0	393.254768912215	393.454775300343
104697	100	653	18	0	16	5	2	4	0	0	0	stim003_stimuli_original_animals_birds_3.png	E	0	0	0	393.654778030701	393.854798315559
104797.25	100	654	18	0	16	6	9	9	0	1	0	stim010_stimuli_original_vehicles_boats_2.png	L	0	0	0	394.055194067303	394.254817917943
104897	100	655	18	0	16	7	7	6	0	0	0	stim008_stimuli_original_animals_fish_4.png	G	0	0	0	394.454797486775	394.65482216049
104997	100	656	18	0	16	8	6	9	0	1	0	stim007_stimuli_original_animals_fish_3.png	L	0	0	0	394.854831717443	395.05480738543
105097	100	657	18	0	16	9	9	0	1	0	0	stim010_stimuli_original_vehicles_boats_2.png	A	0	0	0	395.254807190504	395.45481138397
105197	100	658	18	0	16	10	15	5	0	0	0	stim016_stimuli_original_vehicles_planes_4.png	F	0	0	0	395.654817284085	395.854822209105
105297	100	659	18	0	16	11	9	13	1	0	1	stim010_stimuli_original_vehicles_boats_2.png	U	0	0	0	396.054834935814	396.25484205503
105397	100	660	18	0	16	12	0	15	0	0	0	stim001_stimuli_original_animals_birds_1.png	Y	0	0	0	396.45484088501	396.654868240468
105497	100	661	18	0	16	13	8	2	0	0	0	stim009_stimuli_original_vehicles_boats_1.png	C	0	0	0	396.854851222597	397.054852490313
105597	100	662	18	0	16	14	4	14	0	0	0	stim005_stimuli_original_animals_fish_1.png	V	0	0	0	397.254867167678	397.454894035123
105697	100	663	18	0	16	15	3	9	0	0	0	stim004_stimuli_original_animals_birds_4.png	L	0	0	0	397.654906274751	397.854887793772
105797	100	664	18	0	16	16	11	1	0	0	0	stim012_stimuli_original_vehicles_boats_4.png	B	0	0	0	398.054924658034	398.254891060758
105897	100	665	18	0	16	17	12	10	0	0	0	stim013_stimuli_original_vehicles_planes_1.png	Q	0	0	0	398.454931094311	398.654895546846
105997	100	666	18	0	16	18	10	12	0	0	0	stim011_stimuli_original_vehicles_boats_3.png	T	0	0	0	398.854903153609	399.054907591082
106097	100	667	18	0	16	19	1	11	0	0	0	stim002_stimuli_original_animals_birds_2.png	R	0	0	0	399.254918855149	399.455112000927
106197	100	668	18	0	16	20	9	3	0	0	0	stim010_stimuli_original_vehicles_boats_2.png	D	0	0	0	399.654967714567	399.854967032094
106297	100	669	18	0	16	21	14	4	0	0	0	stim015_stimuli_original_vehicles_planes_3.png	E	0	0	0	400.054939530324	400.254944455344
106397	100	670	18	0	16	22	2	8	0	0	0	stim003_stimuli_original_animals_birds_3.png	K	0	0	0	400.454954987857	400.654984293506
106497.25	100	671	18	0	16	23	15	0	0	0	0	stim016_stimuli_original_vehicles_planes_4.png	A	0	0	0	400.85498726787	401.054990730248
106597.25	100	672	18	0	16	24	13	9	0	1	0	stim014_stimuli_original_vehicles_planes_2.png	L	0	0	0	401.254999556113	401.45498912083
106697.25	100	673	18	0	16	25	5	15	0	0	0	stim006_stimuli_original_animals_fish_2.png	Y	0	0	0	401.655008430593	401.855012380518
106797.25	100	674	18	0	16	26	0	9	0	1	0	stim001_stimuli_original_animals_birds_1.png	L	f	402.0475752661	0	402.054988536052	402.25499102287
106897.25	100	675	18	0	16	27	9	6	1	0	0	stim010_stimuli_original_vehicles_boats_2.png	G	0	0	0	402.455002042931	402.655031592585
106997.25	100	676	18	0	16	28	6	7	0	0	0	stim007_stimuli_original_animals_fish_3.png	J	0	0	0	402.855044319294	403.055047294125
107097.25	100	677	18	0	16	29	9	9	1	0	1	stim010_stimuli_original_vehicles_boats_2.png	L	0	0	0	403.255049780942	403.455054949503
107197.25	100	678	18	0	16	30	4	2	0	0	0	stim005_stimuli_original_animals_fish_1.png	C	0	0	0	403.655045245774	403.855050658341
107297.25	100	679	18	0	16	31	12	1	0	0	0	stim013_stimuli_original_vehicles_planes_1.png	B	0	0	0	404.055074600503	404.255054169334
107397.25	100	680	18	0	16	32	7	10	0	0	0	stim008_stimuli_original_animals_fish_4.png	Q	0	0	0	404.455083962996	404.655090107117
107497.25	100	681	18	0	16	33	11	13	0	0	0	stim012_stimuli_original_vehicles_boats_4.png	U	0	0	0	404.855085523333	405.055081183556
107597.25	100	682	18	0	16	34	3	5	0	0	0	stim004_stimuli_original_animals_birds_4.png	F	0	0	0	405.255103419069	405.455112000927
107697.25	100	683	18	0	16	35	8	14	0	0	0	stim009_stimuli_original_vehicles_boats_1.png	V	0	0	0	405.655119607691	405.855117950123
108722.25	100	684	19	1	7	0	0	6	0	0	0	stim001_stimuli_original_animals_birds_1.png	G	0	0	0	409.755203624722	409.955201235134
108822.25	100	685	19	1	7	1	11	15	0	0	0	stim012_stimuli_original_vehicles_boats_4.png	Y	0	0	0	410.155224933289	410.355245218612
108922.25	100	686	19	1	7	2	6	3	0	0	0	stim007_stimuli_original_animals_fish_3.png	D	0	0	0	410.555262090173	410.75522800535
109022.25	100	687	19	1	7	3	12	9	0	0	0	stim013_stimuli_original_vehicles_planes_1.png	L	0	0	0	410.955238537863	411.155259310734
109122.25	100	688	19	1	7	4	4	4	0	0	0	stim005_stimuli_original_animals_fish_1.png	E	0	0	0	411.355247656349	411.555241366383
109222.25	100	689	19	1	7	5	7	1	0	0	0	stim008_stimuli_original_animals_fish_4.png	B	0	0	0	411.7552438532	411.9552714522
109322.25	100	690	19	1	7	6	11	7	1	0	0	stim012_stimuli_original_vehicles_boats_4.png	J	0	0	0	412.155263943132	412.355261310004
109422.25	100	691	19	1	7	7	5	0	0	1	0	stim006_stimuli_original_animals_fish_2.png	A	0	0	0	412.555272330064	412.755271159578
109522.25	100	692	19	1	7	8	11	10	1	0	0	stim012_stimuli_original_vehicles_boats_4.png	Q	0	0	0	412.955280229449	413.155313192401
109622.25	100	693	19	1	7	9	14	0	0	1	1	stim015_stimuli_original_vehicles_planes_3.png	A	0	0	0	413.355299831834	413.555297686253
109722.25	100	694	19	1	7	10	9	13	0	0	0	stim010_stimuli_original_vehicles_boats_2.png	U	f	413.947074823081	1	413.755306756124	413.955316557083
109822.25	100	695	19	1	7	11	1	11	0	0	0	stim002_stimuli_original_animals_birds_2.png	R	0	0	0	414.155330990441	414.355346399359
109922.25	100	696	19	1	7	12	8	5	0	0	0	stim009_stimuli_original_vehicles_boats_1.png	F	0	0	0	414.555349861272	414.755340401549
110022.25	100	697	19	1	7	13	2	0	0	0	0	stim003_stimuli_original_animals_birds_3.png	A	0	0	0	414.955366294365	415.155362685677
110122.25	100	698	19	1	7	14	10	2	0	0	0	stim011_stimuli_original_vehicles_boats_3.png	C	0	0	0	415.355344936717	415.555346204434
110222.25	100	699	19	1	7	15	15	14	0	0	0	stim016_stimuli_original_vehicles_planes_4.png	V	0	0	0	415.755355761852	415.955372876953
110322.25	100	700	19	1	7	16	3	12	0	0	0	stim004_stimuli_original_animals_birds_4.png	T	0	0	0	416.155379508622	416.355402231682
110422.25	100	701	19	1	7	17	13	8	0	0	0	stim014_stimuli_original_vehicles_planes_2.png	K	0	0	0	416.555408131797	416.755408180878
110522.25	100	702	19	1	7	18	8	13	0	0	0	stim009_stimuli_original_vehicles_boats_1.png	U	0	0	0	416.955414812081	417.155444118194
110622.25	100	703	19	1	7	19	12	3	0	0	0	stim013_stimuli_original_vehicles_planes_1.png	D	0	0	0	417.355400525033	417.555402036756
110722.25	100	704	19	1	7	20	14	15	0	0	0	stim015_stimuli_original_vehicles_planes_3.png	Y	0	0	0	417.755405011121	417.955412861891
110822.25	100	705	19	1	7	21	2	10	0	0	0	stim003_stimuli_original_animals_birds_3.png	Q	0	0	0	418.15541949356	418.35545416316
110922.25	100	706	19	1	7	22	0	2	0	0	0	stim001_stimuli_original_animals_birds_1.png	C	0	0	0	418.555850645993	418.755435487255
111022.25	100	707	19	1	7	23	5	8	0	0	0	stim006_stimuli_original_animals_fish_2.png	K	0	0	0	418.955436267424	419.1554431431
111122.25	100	708	19	1	7	24	11	1	0	0	0	stim012_stimuli_original_vehicles_boats_4.png	B	0	0	0	419.35544831166	419.555484444369
111222.25	100	709	19	1	7	25	13	9	0	0	0	stim014_stimuli_original_vehicles_planes_2.png	L	0	0	0	419.755494001787	419.955480884761
111322.25	100	710	19	1	7	26	0	14	1	0	0	stim001_stimuli_original_animals_birds_1.png	V	0	0	0	420.155503363814	420.355512189679
111422.25	100	711	19	1	7	27	10	11	0	1	0	stim011_stimuli_original_vehicles_boats_3.png	R	0	0	0	420.555492977612	420.755494489335
111522.25	100	712	19	1	7	28	0	5	1	0	0	stim001_stimuli_original_animals_birds_1.png	F	0	0	0	420.955502096098	421.155500682071
111622.25	100	713	19	1	7	29	7	11	0	1	1	stim008_stimuli_original_animals_fish_4.png	R	0	0	0	421.355536570773	421.555541008245
111722.25	100	714	19	1	7	30	1	7	0	0	0	stim002_stimuli_original_animals_birds_2.png	J	0	0	0	421.755547395907	421.955550370272
111822.25	100	715	19	1	7	31	4	4	0	0	0	stim005_stimuli_original_animals_fish_1.png	E	f	422.148206391372	1	422.155561390333	422.355564852711
111922.25	100	716	19	1	7	32	9	12	0	0	0	stim010_stimuli_original_vehicles_boats_2.png	T	0	0	0	422.555551979691	422.755547395907
112022.25	100	717	19	1	7	33	3	6	0	0	0	stim004_stimuli_original_animals_birds_4.png	G	0	0	0	422.955555734225	423.155553344637
112122.25	100	718	19	1	7	34	15	11	0	0	0	stim016_stimuli_original_vehicles_planes_4.png	R	0	0	0	423.355559245218	423.555593427271
112222.25	100	719	19	1	7	35	6	0	0	0	0	stim007_stimuli_original_animals_fish_3.png	A	0	0	0	423.755599327385	423.955956069287
114901.5	100	720	20	0	17	0	4	1	0	0	0	stim005_stimuli_original_animals_fish_1.png	B	0	0	0	434.472551445942	434.672554420307
115001.5	100	721	20	0	17	1	5	15	0	0	0	stim006_stimuli_original_animals_fish_2.png	Y	0	0	0	434.872563002631	435.072565001901
115101.5	100	722	20	0	17	2	9	8	0	0	0	stim010_stimuli_original_vehicles_boats_2.png	K	0	0	0	435.272572852671	435.472544619348
115201.5	100	723	20	0	17	3	1	4	0	0	0	stim002_stimuli_original_animals_birds_2.png	E	0	0	0	435.672564416658	435.872571535874
115301.5	100	724	20	0	17	4	14	0	0	0	0	stim015_stimuli_original_vehicles_planes_3.png	A	0	0	0	436.072596940678	436.272596014198
115401.5	100	725	20	0	17	5	8	6	1	0	0	stim009_stimuli_original_vehicles_boats_1.png	G	0	0	0	436.472563148942	436.672611471731
115501.5	100	726	20	0	17	6	11	5	0	0	0	stim012_stimuli_original_vehicles_boats_4.png	F	0	0	0	436.872599817812	437.072622540873
115601.5	100	727	20	0	17	7	8	14	1	0	1	stim009_stimuli_original_vehicles_boats_1.png	V	0	0	0	437.272629904095	437.472605815623
115701.5	100	728	20	0	17	8	7	9	0	0	0	stim008_stimuli_original_animals_fish_4.png	L	0	0	0	437.672642435879	437.87264467869
115801.5	100	729	20	0	17	9	6	11	0	0	0	stim007_stimuli_original_animals_fish_3.png	R	0	0	0	438.072647409514	438.272648921236
115901.5	100	730	20	0	17	10	13	12	0	1	0	stim014_stimuli_original_vehicles_planes_2.png	T	0	0	0	438.472657015547	438.672665109858
116001.5	100	731	20	0	17	11	2	3	0	0	0	stim003_stimuli_original_animals_birds_3.png	D	0	0	0	438.872650530189	439.073109184392
116101.5	100	732	20	0	17	12	12	12	0	1	0	stim013_stimuli_original_vehicles_planes_1.png	T	0	0	0	439.272655747831	439.472662867047
116201.5	100	733	20	0	17	13	10	10	0	0	0	stim011_stimuli_original_vehicles_boats_3.png	Q	0	0	0	439.672666085418	439.872668328229
116301.5	100	734	20	0	17	14	15	13	0	0	0	stim016_stimuli_original_vehicles_planes_4.png	U	0	0	0	440.072663013358	440.272670376115
116401.5	100	735	20	0	17	15	0	7	0	0	0	stim001_stimuli_original_animals_birds_1.png	J	0	0	0	440.472679689992	440.672679007053
116501.5	100	736	20	0	17	16	3	12	0	0	0	stim004_stimuli_original_animals_birds_4.png	T	0	0	0	440.87269612262	441.072705680039
116601.5	100	737	20	0	17	17	8	2	0	0	0	stim009_stimuli_original_vehicles_boats_1.png	C	0	0	0	441.272700608708	441.472706264816
116701.5	100	738	20	0	17	18	2	8	0	0	0	stim003_stimuli_original_animals_birds_3.png	K	0	0	0	441.672739471775	441.872747322544
116801.5	100	739	20	0	17	19	12	3	0	0	0	stim013_stimuli_original_vehicles_planes_1.png	D	0	0	0	442.072735668626	442.27274644468
116901.5	100	740	20	0	17	20	7	0	0	0	0	stim008_stimuli_original_animals_fish_4.png	A	0	0	0	442.472747224849	442.672743616626
117001.5	100	741	20	0	17	21	13	15	0	0	0	stim014_stimuli_original_vehicles_planes_2.png	Y	0	0	0	442.872750979848	443.072768582497
117101.5	100	742	20	0	17	22	10	10	0	0	0	stim011_stimuli_original_vehicles_boats_3.png	Q	0	0	0	443.272764974274	443.472795987036
117201.5	100	743	20	0	17	23	12	12	1	0	0	stim013_stimuli_original_vehicles_planes_1.png	T	0	0	0	443.672798229847	443.872785600834
117301.5	100	744	20	0	17	24	3	2	0	0	0	stim004_stimuli_original_animals_birds_4.png	C	f	444.264559323899	0	444.072789550293	444.272808372509
117401.5	100	745	20	0	17	25	12	13	1	0	1	stim013_stimuli_original_vehicles_planes_1.png	U	0	0	0	444.472798912786	444.672795791645
117501.5	100	746	20	0	17	26	11	6	0	0	0	stim012_stimuli_original_vehicles_boats_4.png	G	0	0	0	444.872804129962	445.072795157786
117601.5	100	747	20	0	17	27	9	7	0	0	0	stim010_stimuli_original_vehicles_boats_2.png	J	f	445.464577902108	1	445.272813980002	445.472816466819
117701.5	100	748	20	0	17	28	14	8	0	1	0	stim015_stimuli_original_vehicles_planes_3.png	K	0	0	0	445.672821635846	445.872829242609
117801.5	100	749	20	0	17	29	5	11	0	0	0	stim006_stimuli_original_animals_fish_2.png	R	0	0	0	446.072840750217	446.272836410441
117901.5	100	750	20	0	17	30	6	8	0	1	0	stim007_stimuli_original_animals_fish_3.png	K	0	0	0	446.472836703062	446.67285406217
118001.5	100	751	20	0	17	31	0	14	0	0	0	stim001_stimuli_original_animals_birds_1.png	V	0	0	0	446.872852648143	447.072853428312
118101.5	100	752	20	0	17	32	4	1	0	0	0	stim005_stimuli_original_animals_fish_1.png	B	0	0	0	447.272861035075	447.472863765899
118201.5	100	753	20	0	17	33	8	9	0	0	0	stim009_stimuli_original_vehicles_boats_1.png	L	0	0	0	447.672887464054	447.872881417628
118301.5	100	754	20	0	17	34	15	5	0	0	0	stim016_stimuli_original_vehicles_planes_4.png	F	0	0	0	448.072874883655	448.272914429661
118401.5	100	755	20	0	17	35	1	4	0	0	0	stim002_stimuli_original_animals_birds_2.png	E	0	0	0	448.472899849527	448.672902336344
120547.5	100	756	21	1	35	0	2	13	0	0	0	stim003_stimuli_original_animals_birds_3.png	U	0	0	0	457.056462851353	457.25645924313
120647.5	100	757	21	1	35	1	6	5	0	0	0	stim007_stimuli_original_animals_fish_3.png	F	0	0	0	457.456493425183	457.65648103971
120747.5	100	758	21	1	35	2	10	3	0	0	0	stim011_stimuli_original_vehicles_boats_3.png	D	0	0	0	457.856476455927	458.056508443784
120847.5	100	759	21	1	35	3	15	2	0	0	0	stim016_stimuli_original_vehicles_planes_4.png	C	0	0	0	458.256515807007	458.456521463115
120947.5	100	760	21	1	35	4	7	8	0	0	0	stim008_stimuli_original_animals_fish_4.png	K	0	0	0	458.656530532986	458.856513515115
121047.5	100	761	21	1	35	5	11	6	0	0	0	stim012_stimuli_original_vehicles_boats_4.png	G	0	0	0	459.056540383026	459.256541406736
121147.5	100	762	21	1	35	6	1	15	0	0	0	stim002_stimuli_original_animals_birds_2.png	Y	0	0	0	459.4565502326	459.656553207431
121247.5	100	763	21	1	35	7	12	0	0	0	0	stim013_stimuli_original_vehicles_planes_1.png	A	0	0	0	459.85658080643	460.056546478067
121347.5	100	764	21	1	35	8	3	7	0	1	0	stim004_stimuli_original_animals_birds_4.png	J	0	0	0	460.256570176221	460.456572663505
121447.5	100	765	21	1	35	9	4	9	1	0	0	stim005_stimuli_original_animals_fish_1.png	L	0	0	0	460.656561253127	460.856542772148
121547.5	100	766	21	1	35	10	14	7	0	1	1	stim015_stimuli_original_vehicles_planes_3.png	J	0	0	0	461.056596702896	461.256614549551
121647.5	100	767	21	1	35	11	4	10	1	0	0	stim005_stimuli_original_animals_fish_1.png	Q	0	0	0	461.456607040484	461.656607089099
121747.5	100	768	21	1	35	12	9	4	0	0	0	stim010_stimuli_original_vehicles_boats_2.png	E	d	461.849247262347	1	461.856600555126	462.056599384639
121847.5	100	769	21	1	35	13	8	7	0	0	0	stim009_stimuli_original_vehicles_boats_1.png	J	0	0	0	462.25662308326	462.456609966233
121947.5	100	770	21	1	35	14	13	11	0	0	0	stim014_stimuli_original_vehicles_planes_2.png	R	0	0	0	462.656837976538	462.856644684449
122047.5	100	771	21	1	35	15	5	12	0	0	0	stim006_stimuli_original_animals_fish_2.png	T	0	0	0	463.056644489523	463.256648926996
122147.5	100	772	21	1	35	16	4	1	0	0	0	stim005_stimuli_original_animals_fish_1.png	B	0	0	0	463.456632152665	463.656659264583
122247.5	100	773	21	1	35	17	0	14	0	0	0	stim001_stimuli_original_animals_birds_1.png	V	0	0	0	463.856650535949	464.056644245517
122347.5	100	774	21	1	35	18	14	0	0	0	0	stim015_stimuli_original_vehicles_planes_3.png	A	0	0	0	464.256651121192	464.456678720191
122447.5	100	775	21	1	35	19	1	4	0	0	0	stim002_stimuli_original_animals_birds_2.png	E	0	0	0	464.656689496711	464.856692715082
122547.5	100	776	21	1	35	20	12	5	0	0	0	stim013_stimuli_original_vehicles_planes_1.png	F	0	0	0	465.056680573151	465.25670012692
122647.5	100	777	21	1	35	21	11	13	0	0	0	stim012_stimuli_original_vehicles_boats_4.png	U	0	0	0	465.456708708778	465.656714121345
122747.5	100	778	21	1	35	22	7	8	0	0	0	stim008_stimuli_original_animals_fish_4.png	K	0	0	0	465.856723191217	466.05670714844
122847.5	100	779	21	1	35	23	4	9	0	0	0	stim005_stimuli_original_animals_fish_1.png	L	0	0	0	466.256733041257	466.456733821426
122947.5	100	780	21	1	35	24	10	4	0	1	0	stim011_stimuli_original_vehicles_boats_3.png	E	0	0	0	466.656750205439	466.856725141872
123047.5	100	781	21	1	35	25	7	14	1	0	0	stim008_stimuli_original_animals_fish_4.png	V	0	0	0	467.05672202073	467.256721582264
123147.5	100	782	21	1	35	26	9	4	0	1	1	stim010_stimuli_original_vehicles_boats_2.png	E	0	0	0	467.456733821426	467.656743134838
123247.5	100	783	21	1	35	27	7	3	1	0	0	stim008_stimuli_original_animals_fish_4.png	D	d	468.048536850605	1	467.856772196945	468.057210371364
123347.5	100	784	21	1	35	28	0	12	0	0	0	stim001_stimuli_original_animals_birds_1.png	T	0	0	0	468.256760591641	468.456756983418
123447.5	100	785	21	1	35	29	15	1	0	0	0	stim016_stimuli_original_vehicles_planes_4.png	B	0	0	0	468.656800673809	468.856780486647
123547.5	100	786	21	1	35	30	6	11	0	0	0	stim007_stimuli_original_animals_fish_3.png	R	0	0	0	469.056805403903	469.256806184072
123647.5	100	787	21	1	35	31	8	7	0	0	0	stim009_stimuli_original_vehicles_boats_1.png	J	0	0	0	469.456788190641	469.656791653018
123747.5	100	788	21	1	35	32	2	15	0	0	0	stim003_stimuli_original_animals_birds_3.png	Y	0	0	0	469.856799747329	470.056801015045
123847.5	100	789	21	1	35	33	3	10	0	0	0	stim004_stimuli_original_animals_birds_4.png	Q	0	0	0	470.256813498214	470.456814522389
123947.5	100	790	21	1	35	34	5	6	0	0	0	stim006_stimuli_original_animals_fish_2.png	G	0	0	0	470.656830662396	470.856855092105
124047.5	100	791	21	1	35	35	13	2	0	0	0	stim014_stimuli_original_vehicles_planes_2.png	C	0	0	0	471.056839049328	471.256859334651
125218.5	100	792	22	0	12	0	1	12	0	0	0	stim002_stimuli_original_animals_birds_2.png	T	0	0	0	475.740318327211	475.940302528441
125318.5	100	793	22	0	12	1	9	5	0	0	0	stim010_stimuli_original_vehicles_boats_2.png	F	0	0	0	476.140325007495	476.340332126711
125418.5	100	794	22	0	12	2	0	10	0	0	0	stim001_stimuli_original_animals_birds_1.png	Q	0	0	0	476.540337051731	476.740312475711
125518.5	100	795	22	0	12	3	12	13	0	0	0	stim013_stimuli_original_vehicles_planes_1.png	U	0	0	0	476.940319350921	477.140705350321
125618.5	100	796	22	0	12	4	7	0	0	0	0	stim008_stimuli_original_animals_fish_4.png	A	0	0	0	477.340338222217	477.54032998113
125718.5	100	797	22	0	12	5	2	6	0	1	0	stim003_stimuli_original_animals_birds_3.png	G	0	0	0	477.740331736859	477.940335442778
