onset	duration	eventnumber	sequencenumber	condition	streamnumber	stimnumber	objectstimnumber	letterstimnumber	objecttarget	lettertarget	is2back	objectstim	letterstim	response	rt	correct	time_stimon	time_stimoff
15283.25	100	0	0	1	22	0	13	4	0	0	0	stim014_stimuli_original_vehicles_planes_2.png	E	0	0	0	50.6957160730381	50.8957197789568
15383.25	100	1	0	1	22	1	15	7	0	0	0	stim016_stimuli_original_vehicles_planes_4.png	J	0	0	0	51.0957561554387	51.2966046610381
15483.25	100	2	0	1	22	2	14	2	0	0	0	stim015_stimuli_original_vehicles_planes_3.png	C	0	0	0	51.4957323595881	51.6957289949059
15583.25	100	3	0	1	22	3	10	11	0	0	0	stim011_stimuli_original_vehicles_boats_3.png	R	0	0	0	51.895736114122	52.0957434773445
15683.25	100	4	0	1	22	4	3	12	0	0	0	stim004_stimuli_original_animals_birds_4.png	T	0	0	0	52.2957586422563	52.4957508891821
15783.25	100	5	0	1	22	5	2	5	0	0	0	stim003_stimuli_original_animals_birds_3.png	F	0	0	0	52.6957633721177	52.8957661027089
15883.25	100	6	0	1	22	6	1	6	0	0	0	stim002_stimuli_original_animals_birds_2.png	G	0	0	0	53.0957671268843	53.2957852175459
15983.25	100	7	0	1	22	7	15	10	1	0	0	stim016_stimuli_original_vehicles_planes_4.png	Q	0	0	0	53.4957806337625	53.6957836083602
16083.25	100	8	0	1	22	8	8	8	0	0	0	stim009_stimuli_original_vehicles_boats_1.png	K	0	0	0	53.8957968228497	54.0957946772687
16183.25	100	9	0	1	22	9	15	15	1	0	0	stim016_stimuli_original_vehicles_planes_4.png	Y	0	0	0	54.2958025280386	54.4958076965995
16283.25	100	10	0	1	22	10	9	9	0	0	0	stim010_stimuli_original_vehicles_boats_2.png	L	0	0	0	54.6958189606667	54.8958168150857
16383.25	100	11	0	1	22	11	0	7	0	1	0	stim001_stimuli_original_animals_birds_1.png	J	0	0	0	55.0958249096293	55.2958327603992
16483.25	100	12	0	1	22	12	5	0	0	0	0	stim006_stimuli_original_animals_fish_2.png	A	0	0	0	55.4958291519433	55.6958391969092
16583.25	100	13	0	1	22	13	11	7	0	1	1	stim012_stimuli_original_vehicles_boats_4.png	J	0	0	0	55.895852898946	56.0958412447944
16683.25	100	14	0	1	22	14	7	13	0	0	0	stim008_stimuli_original_animals_fish_4.png	U	d	56.4876298406161	1	56.2958634803072	56.4958591405302
16783.25	100	15	0	1	22	15	12	14	0	0	0	stim013_stimuli_original_vehicles_planes_1.png	V	0	0	0	56.695867234841	56.8958697218914
16883.25	100	16	0	1	22	16	6	3	0	0	0	stim007_stimuli_original_animals_fish_3.png	D	0	0	0	57.0958763533272	57.2958754268475
16983.25	100	17	0	1	22	17	4	1	0	0	0	stim005_stimuli_original_animals_fish_1.png	B	0	0	0	57.4958847404923	57.6958879588638
17083.25	100	18	0	1	22	18	1	4	0	0	0	stim002_stimuli_original_animals_birds_2.png	E	0	0	0	57.8958953218535	58.0958968333434
17183.25	100	19	0	1	22	19	3	6	0	0	0	stim004_stimuli_original_animals_birds_4.png	G	0	0	0	58.295906390762	58.4959110717755
17283.25	100	20	0	1	22	20	14	12	0	0	0	stim015_stimuli_original_vehicles_planes_3.png	T	0	0	0	58.6959245302714	58.8959170207381
17383.25	100	21	0	1	22	21	13	7	0	0	0	stim014_stimuli_original_vehicles_planes_2.png	J	0	0	0	59.0959307230078	59.29593418492
17483.25	100	22	0	1	22	22	7	11	1	0	0	stim008_stimuli_original_animals_fish_4.png	R	0	0	0	59.4959395974874	59.6959420845378
17583.25	100	23	0	1	22	23	0	5	0	0	0	stim001_stimuli_original_animals_birds_1.png	F	0	0	0	59.8959535921458	60.0959572980646
17683.25	100	24	0	1	22	24	7	0	1	0	0	stim008_stimuli_original_animals_fish_4.png	A	0	0	0	60.2959566155914	60.4959573957603
17783.25	100	25	0	1	22	25	9	9	0	0	0	stim010_stimuli_original_vehicles_boats_2.png	L	0	0	0	60.6959730482195	60.8959782170132
17883.25	100	26	0	1	22	26	15	15	0	1	0	stim016_stimuli_original_vehicles_planes_4.png	Y	0	0	0	61.0959753401112	61.2959792898037
17983.5	100	27	0	1	22	27	8	8	0	0	0	stim009_stimuli_original_vehicles_boats_1.png	K	0	0	0	61.4959973804653	61.6959976730868
18083.5	100	28	0	1	22	28	10	15	0	1	1	stim011_stimuli_original_vehicles_boats_3.png	Y	0	0	0	61.8960052798502	62.0960087419953
18183.5	100	29	0	1	22	29	6	1	0	0	0	stim007_stimuli_original_animals_fish_3.png	B	d	62.4877780766692	1	62.2960131792352	62.4960161538329
18283.5	100	30	0	1	22	30	5	2	0	0	0	stim006_stimuli_original_animals_fish_2.png	C	0	0	0	62.6960208348464	62.8960230778903
18383.5	100	31	0	1	22	31	12	3	0	0	0	stim013_stimuli_original_vehicles_planes_1.png	D	0	0	0	63.096035317285	63.296036828775
18483.5	100	32	0	1	22	32	11	10	0	0	0	stim012_stimuli_original_vehicles_boats_4.png	Q	0	0	0	63.4960478490684	63.6960466785822
18583.5	100	33	0	1	22	33	2	14	0	0	0	stim003_stimuli_original_animals_birds_3.png	V	0	0	0	63.8960776913445	64.0960867609829
18683.5	100	34	0	1	22	34	7	15	0	0	0	stim008_stimuli_original_animals_fish_4.png	Y	0	0	0	64.2960785201285	64.4960817384999
18783.5	100	35	0	1	22	35	4	13	0	0	0	stim005_stimuli_original_animals_fish_1.png	U	0	0	0	64.6960893452633	64.896094514057
20308.5	100	36	1	0	41	0	7	3	0	0	0	stim008_stimuli_original_animals_fish_4.png	D	0	0	0	70.7962401658297	70.9962363136001
20408.5	100	37	1	0	41	1	10	14	0	0	0	stim011_stimuli_original_vehicles_boats_3.png	V	0	0	0	71.1962436768226	71.3962559159845
20508.5	100	38	1	0	41	2	14	2	0	0	0	stim015_stimuli_original_vehicles_planes_3.png	C	0	0	0	71.5962710808963	71.7964686152991
20608.5	100	39	1	0	41	3	4	10	0	0	0	stim005_stimuli_original_animals_fish_1.png	Q	0	0	0	71.9962684966158	72.1962736651767
20708.5	100	40	1	0	41	4	12	15	0	0	0	stim013_stimuli_original_vehicles_planes_1.png	Y	0	0	0	72.3962759082206	72.5962788828183
20808.5	100	41	1	0	41	5	15	1	0	1	0	stim016_stimuli_original_vehicles_planes_4.png	B	0	0	0	72.7962869773619	72.9963179898914
20908.5	100	42	1	0	41	6	13	11	0	0	0	stim014_stimuli_original_vehicles_planes_2.png	R	0	0	0	73.1963021908887	73.3963007768616
21008.5	100	43	1	0	41	7	11	1	0	1	0	stim012_stimuli_original_vehicles_boats_4.png	B	0	0	0	73.5963064332027	73.7963140401989
21108.5	100	44	1	0	41	8	1	9	0	0	0	stim002_stimuli_original_animals_birds_2.png	L	0	0	0	73.9963136012666	74.1963231586851
21208.5	100	45	1	0	41	9	5	5	0	0	0	stim006_stimuli_original_animals_fish_2.png	F	0	0	0	74.3963297901209	74.5963381284382
21308.5	100	46	1	0	41	10	12	13	1	0	0	stim013_stimuli_original_vehicles_planes_1.png	U	0	0	0	74.7963435410056	74.9963552926201
21408.5	100	47	1	0	41	11	8	12	0	0	0	stim009_stimuli_original_vehicles_boats_1.png	T	0	0	0	75.196349733742	75.3963519767858
21508.5	100	48	1	0	41	12	12	0	1	0	1	stim013_stimuli_original_vehicles_planes_1.png	A	0	0	0	75.5963668979239	75.7963684096467
21608.5	100	49	1	0	41	13	6	1	0	0	0	stim007_stimuli_original_animals_fish_3.png	B	d	75.9889564078767	1	75.9963743097614	76.1963731395081
21708.5	100	50	1	0	41	14	2	7	0	0	0	stim003_stimuli_original_animals_birds_3.png	J	0	0	0	76.3963812340517	76.596388109494
21808.5	100	51	1	0	41	15	3	4	0	0	0	stim004_stimuli_original_animals_birds_4.png	E	0	0	0	76.7968314036261	76.9964028354734
21908.5	100	52	1	0	41	16	9	8	0	0	0	stim010_stimuli_original_vehicles_boats_2.png	K	0	0	0	77.1964004461188	77.3964112226386
22008.5	100	53	1	0	41	17	0	6	0	0	0	stim001_stimuli_original_animals_birds_1.png	G	0	0	0	77.5964141970035	77.7964213162195
22108.5	100	54	1	0	41	18	6	0	0	0	0	stim007_stimuli_original_animals_fish_3.png	A	0	0	0	77.99642087752	78.1964306784794
22208.5	100	55	1	0	41	19	8	9	0	0	0	stim009_stimuli_original_vehicles_boats_1.png	L	0	0	0	78.3964451120701	78.5964422351681
22308.5	100	56	1	0	41	20	4	3	0	0	0	stim005_stimuli_original_animals_fish_1.png	D	0	0	0	78.7964466724079	78.996476466069
22408.5	100	57	1	0	41	21	7	2	0	0	0	stim008_stimuli_original_animals_fish_4.png	C	0	0	0	79.1964606670663	79.3964626663364
22508.5	100	58	1	0	41	22	1	6	0	0	0	stim002_stimuli_original_animals_birds_2.png	G	0	0	0	79.5964746617246	79.7965029925108
22608.5	100	59	1	0	41	23	0	12	0	1	0	stim001_stimuli_original_animals_birds_1.png	T	0	0	0	79.9964789040387	80.1964821224101
22708.5	100	60	1	0	41	24	12	8	0	0	0	stim013_stimuli_original_vehicles_planes_1.png	K	0	0	0	80.3964958244469	80.5964951417409
22808.5	100	61	1	0	41	25	13	12	0	1	0	stim014_stimuli_original_vehicles_planes_2.png	T	0	0	0	80.7965320057701	80.9964967020787
22908.5	100	62	1	0	41	26	5	5	0	0	0	stim006_stimuli_original_animals_fish_2.png	F	0	0	0	81.1965138176456	81.3965119158383
23008.5	100	63	1	0	41	27	9	1	0	0	0	stim010_stimuli_original_vehicles_boats_2.png	B	0	0	0	81.5965258616488	81.7965290800203
23108.5	100	64	1	0	41	28	1	11	1	0	0	stim002_stimuli_original_animals_birds_2.png	R	0	0	0	81.9969450677745	82.1965416118037
23208.5	100	65	1	0	41	29	11	13	0	0	0	stim012_stimuli_original_vehicles_boats_4.png	U	0	0	0	82.3965389786754	82.5965409779456
23308.5	100	66	1	0	41	30	1	15	1	0	1	stim002_stimuli_original_animals_birds_2.png	Y	0	0	0	82.7965488287155	82.9965539972764
23408.5	100	67	1	0	41	31	15	12	0	0	0	stim016_stimuli_original_vehicles_planes_4.png	T	0	0	0	83.1965664804447	83.3965684797149
23508.5	100	68	1	0	41	32	10	4	0	0	0	stim011_stimuli_original_vehicles_boats_3.png	E	0	0	0	83.5965785246808	83.796607586788
23608.5	100	69	1	0	41	33	2	14	0	0	0	stim003_stimuli_original_animals_birds_3.png	V	0	0	0	83.9965822792146	84.1965889108833
23708.5	100	70	1	0	41	34	14	10	0	0	0	stim015_stimuli_original_vehicles_planes_3.png	Q	0	0	0	84.3965926168021	84.5966109512374
23808.5	100	71	1	0	41	35	3	7	0	0	0	stim004_stimuli_original_animals_birds_4.png	J	0	0	0	84.7966146571562	84.9966344544664
25250.25	100	72	2	1	39	0	14	10	0	0	0	stim015_stimuli_original_vehicles_planes_3.png	Q	0	0	0	90.5634245863184	90.763427073136
25350.25	100	73	2	1	39	1	4	7	0	0	0	stim005_stimuli_original_animals_fish_1.png	J	0	0	0	90.963434923673	91.1634354600683
25450.25	100	74	2	1	39	2	6	4	0	0	0	stim007_stimuli_original_animals_fish_3.png	E	0	0	0	91.3634425792843	91.5634501862805
25550.25	100	75	2	1	39	3	7	11	0	0	0	stim008_stimuli_original_animals_fish_4.png	R	0	0	0	91.7638878729194	91.9634675942361
25650.25	100	76	2	1	39	4	1	13	0	0	0	stim002_stimuli_original_animals_birds_2.png	U	0	0	0	92.1634673990775	92.3634693983477
25750.25	100	77	2	1	39	5	8	6	0	0	0	stim009_stimuli_original_vehicles_boats_1.png	G	0	0	0	92.5634735920466	92.763483393006
25850.25	100	78	2	1	39	6	3	12	0	0	0	stim004_stimuli_original_animals_birds_4.png	T	0	0	0	92.9634870989248	93.1634908048436
25950.25	100	79	2	1	39	7	10	9	0	0	0	stim011_stimuli_original_vehicles_boats_3.png	L	0	0	0	93.3634986556135	93.5635018737521
26050.25	100	80	2	1	39	8	5	15	0	0	0	stim006_stimuli_original_animals_fish_2.png	Y	0	0	0	93.7635355682578	93.9635122113395
26150.25	100	81	2	1	39	9	0	14	0	0	0	stim001_stimuli_original_animals_birds_1.png	V	0	0	0	94.1635185992345	94.3635210860521
26250.25	100	82	2	1	39	10	10	6	1	1	0	stim011_stimuli_original_vehicles_boats_3.png	G	0	0	0	94.5635301556904	94.7635348369367
26350.25	100	83	2	1	39	11	15	8	0	0	0	stim016_stimuli_original_vehicles_planes_4.png	K	0	0	0	94.9635395179503	95.1635441991966
26450.25	100	84	2	1	39	12	10	6	1	1	1	stim011_stimuli_original_vehicles_boats_3.png	G	0	0	0	95.3635515621863	95.5635569747537
26550.25	100	85	2	1	39	13	2	1	0	0	0	stim003_stimuli_original_animals_birds_3.png	B	d	95.955360199092	1	95.7635935950093	95.9635802342091
26650.25	100	86	2	1	39	14	11	2	0	0	0	stim012_stimuli_original_vehicles_boats_4.png	C	0	0	0	96.1635688238312	96.3635749679524
26750.25	100	87	2	1	39	15	13	3	0	0	0	stim014_stimuli_original_vehicles_planes_2.png	D	0	0	0	96.5635862317868	96.7635816482361
26850.25	100	88	2	1	39	16	9	0	0	0	0	stim010_stimuli_original_vehicles_boats_2.png	A	0	0	0	96.9636036399752	97.1636039323639
26950.25	100	89	2	1	39	17	12	5	0	0	0	stim013_stimuli_original_vehicles_planes_1.png	F	0	0	0	97.3636117831338	97.5636123195291
27050.25	100	90	2	1	39	18	5	12	0	0	0	stim006_stimuli_original_animals_fish_2.png	T	0	0	0	97.7636452824809	97.9636455751024
27150.25	100	91	2	1	39	19	0	9	0	0	0	stim001_stimuli_original_animals_birds_1.png	L	0	0	0	98.1636270943563	98.3636581068859
27250.25	100	92	2	1	39	20	3	13	0	0	0	stim004_stimuli_original_animals_birds_4.png	U	0	0	0	98.5636479156092	98.7636706386693
27350.25	100	93	2	1	39	21	2	11	0	0	0	stim003_stimuli_original_animals_birds_3.png	R	0	0	0	98.9636777578853	99.1636778067332
27450.25	100	94	2	1	39	22	1	2	0	0	0	stim002_stimuli_original_animals_birds_2.png	C	0	0	0	99.3636637146119	99.5636654698756
27550.25	100	95	2	1	39	23	6	10	1	1	0	stim007_stimuli_original_animals_fish_3.png	Q	0	0	0	99.7636684444733	99.9636706875172
27650.25	100	96	2	1	39	24	8	15	0	0	0	stim009_stimuli_original_vehicles_boats_1.png	Y	0	0	0	100.163679269608	100.363681512652
27750.25	100	97	2	1	39	25	6	10	1	1	1	stim007_stimuli_original_animals_fish_3.png	Q	0	0	0	100.563689607196	100.763709648279
27850.25	100	98	2	1	39	26	14	0	0	0	0	stim015_stimuli_original_vehicles_planes_3.png	A	d	101.155472643906	1	100.963708234252	101.163709989516
27950.25	100	99	2	1	39	27	15	5	0	0	0	stim016_stimuli_original_vehicles_planes_4.png	F	0	0	0	101.363714914536	101.563719839556
28050.25	100	100	2	1	39	28	9	10	0	0	0	stim010_stimuli_original_vehicles_boats_2.png	Q	0	0	0	101.763748170109	101.963733590208
28150.25	100	101	2	1	39	29	12	3	0	0	0	stim013_stimuli_original_vehicles_planes_1.png	D	0	0	0	102.163736564806	102.363735150779
28250.25	100	102	2	1	39	30	6	8	0	0	0	stim007_stimuli_original_animals_fish_3.png	K	0	0	0	102.563748609042	102.763744269265
28350.25	100	103	2	1	39	31	13	1	0	0	0	stim014_stimuli_original_vehicles_planes_2.png	B	0	0	0	102.963756264653	103.163760701893
28450.25	100	104	2	1	39	32	11	7	0	0	0	stim012_stimuli_original_vehicles_boats_4.png	J	0	0	0	103.363766358234	103.563767382409
28550.25	100	105	2	1	39	33	4	6	0	0	0	stim005_stimuli_original_animals_fish_1.png	G	0	0	0	103.763782547321	103.963786497014
28650.25	100	106	2	1	39	34	7	4	0	0	0	stim008_stimuli_original_animals_fish_4.png	E	0	0	0	104.163786301855	104.363786106929
28750.25	100	107	2	1	39	35	10	14	0	0	0	stim011_stimuli_original_vehicles_boats_3.png	V	0	0	0	104.563811267959	104.763800101588
29792	100	108	3	0	40	0	4	7	0	0	0	stim005_stimuli_original_animals_fish_1.png	J	0	0	0	108.730573507957	108.930570143508
29892	100	109	3	0	40	1	6	5	0	0	0	stim007_stimuli_original_animals_fish_3.png	F	0	0	0	109.130584333092	109.330586088588
29992	100	110	3	0	40	2	14	14	0	0	0	stim015_stimuli_original_vehicles_planes_3.png	V	0	0	0	109.530594182899	109.730597888818
30092	100	111	3	0	40	3	7	2	0	0	0	stim008_stimuli_original_animals_fish_4.png	C	0	0	0	109.930599156767	110.130600424483
30192	100	112	3	0	40	4	3	3	0	0	0	stim004_stimuli_original_animals_birds_4.png	D	0	0	0	110.330609250348	110.530831897166
30292	100	113	3	0	40	5	5	15	0	0	0	stim006_stimuli_original_animals_fish_2.png	Y	0	0	0	110.730627389858	110.930626463378
30392	100	114	3	0	40	6	0	4	0	0	0	stim001_stimuli_original_animals_birds_1.png	E	0	0	0	111.130627975101	111.330636313185
30492	100	115	3	0	40	7	13	9	0	0	0	stim014_stimuli_original_vehicles_planes_2.png	L	0	0	0	111.53064270108	111.73064713832
30592	100	116	3	0	40	8	5	12	1	0	0	stim006_stimuli_original_animals_fish_2.png	T	0	0	0	111.930650600465	112.130655525485
30692	100	117	3	0	40	9	10	0	0	0	0	stim011_stimuli_original_vehicles_boats_3.png	A	0	0	0	112.330661669374	112.530664400198
30792	100	118	3	0	40	10	5	1	1	1	1	stim006_stimuli_original_animals_fish_2.png	B	0	0	0	112.730673469836	112.930673762457
30892	100	119	3	0	40	11	1	13	0	0	0	stim002_stimuli_original_animals_birds_2.png	U	d	113.123250301462	1	113.130683319643	113.330686538015
30992	100	120	3	0	40	12	12	1	0	1	0	stim013_stimuli_original_vehicles_planes_1.png	B	0	0	0	113.530693901004	113.730697850697
31092	100	121	3	0	40	13	11	8	0	0	0	stim012_stimuli_original_vehicles_boats_4.png	K	0	0	0	113.930703751044	114.130706237862
31192	100	122	3	0	40	14	9	6	0	0	0	stim010_stimuli_original_vehicles_boats_2.png	G	0	0	0	114.330714332405	114.530721695395
31292	100	123	3	0	40	15	2	10	0	0	0	stim003_stimuli_original_animals_birds_3.png	Q	0	0	0	114.730733203236	114.930726425257
31392	100	124	3	0	40	16	8	11	0	0	0	stim009_stimuli_original_vehicles_boats_1.png	R	0	0	0	115.130736226449	115.33073651907
31492	100	125	3	0	40	17	15	1	0	0	0	stim016_stimuli_original_vehicles_planes_4.png	B	0	0	0	115.530745344935	115.730761484941
31592	100	126	3	0	40	18	1	15	0	0	0	stim002_stimuli_original_animals_birds_2.png	Y	0	0	0	115.930767385289	116.130767921684
31692	100	127	3	0	40	19	11	8	0	0	0	stim012_stimuli_original_vehicles_boats_4.png	K	0	0	0	116.330772602698	116.530769725796
31792	100	128	3	0	40	20	10	2	0	0	0	stim011_stimuli_original_vehicles_boats_3.png	C	0	0	0	116.730782452738	116.930784939555
31892	100	129	3	0	40	21	6	9	0	0	0	stim007_stimuli_original_animals_fish_3.png	L	0	0	0	117.130790352123	117.330791376065
31992	100	130	3	0	40	22	8	11	0	0	0	stim009_stimuli_original_vehicles_boats_1.png	R	0	0	0	117.530802396359	117.730807808926
32092	100	131	3	0	40	23	1	12	1	0	0	stim002_stimuli_original_animals_birds_2.png	T	0	0	0	117.930814196588	118.130819365382
32192	100	132	3	0	40	24	13	1	0	0	0	stim014_stimuli_original_vehicles_planes_2.png	B	0	0	0	118.330828922801	118.530843112385
32292	100	133	3	0	40	25	1	5	1	1	1	stim002_stimuli_original_animals_birds_2.png	F	0	0	0	118.730847305851	118.930837846128
32392	100	134	3	0	40	26	0	10	0	0	0	stim001_stimuli_original_animals_birds_1.png	Q	0	0	0	119.130843014922	119.330844526645
32492	100	135	3	0	40	27	12	5	0	1	0	stim013_stimuli_original_vehicles_planes_1.png	F	0	0	0	119.53085042676	119.73087022407
32592	100	136	3	0	40	28	9	13	0	0	0	stim010_stimuli_original_vehicles_boats_2.png	U	0	0	0	119.930865152739	120.130868858658
32692	100	137	3	0	40	29	4	0	0	0	0	stim005_stimuli_original_animals_fish_1.png	A	0	0	0	120.33087280835	120.530875295401
32792	100	138	3	0	40	30	15	5	0	0	0	stim016_stimuli_original_vehicles_planes_4.png	F	0	0	0	120.730883145938	120.930885145208
32892	100	139	3	0	40	31	3	3	0	0	0	stim004_stimuli_original_animals_birds_4.png	D	0	0	0	121.131110717775	121.330901577836
32992	100	140	3	0	40	32	2	7	0	0	0	stim003_stimuli_original_animals_birds_3.png	J	0	0	0	121.530902358238	121.73094190401
33092	100	141	3	0	40	33	14	14	0	0	0	stim015_stimuli_original_vehicles_planes_3.png	V	0	0	0	121.930920009967	122.130943464348
33192	100	142	3	0	40	34	5	6	0	0	0	stim006_stimuli_original_animals_fish_2.png	G	0	0	0	122.330925715156	122.53092747042
33292	100	143	3	0	40	35	7	4	0	0	0	stim008_stimuli_original_animals_fish_4.png	E	0	0	0	122.730936540291	122.930937564233
34633.75	100	144	4	1	11	0	15	7	0	0	0	stim016_stimuli_original_vehicles_planes_4.png	J	0	0	0	128.097783186939	128.297778115841
34733.75	100	145	4	1	11	1	0	0	0	0	0	stim001_stimuli_original_animals_birds_1.png	A	0	0	0	128.497784503503	128.697772849584
34833.75	100	146	4	1	11	2	14	8	0	0	0	stim015_stimuli_original_vehicles_planes_3.png	K	0	0	0	128.897780212574	129.097774897469
34933.75	100	147	4	1	11	3	5	13	0	0	0	stim006_stimuli_original_animals_fish_2.png	U	0	0	0	129.297782504233	129.497781333979
35033.75	100	148	4	1	11	4	9	14	0	0	0	stim010_stimuli_original_vehicles_boats_2.png	V	0	0	0	129.69779284182	129.897798498161
35133.75	100	149	4	1	11	5	7	4	0	0	0	stim008_stimuli_original_animals_fish_4.png	E	0	0	0	130.097805373603	130.29783077864
35233.75	100	150	4	1	11	6	12	11	0	0	0	stim013_stimuli_original_vehicles_planes_1.png	R	0	0	0	130.497837166535	130.697832338978
35334	100	151	4	1	11	7	10	1	0	0	0	stim011_stimuli_original_vehicles_boats_3.png	B	0	0	0	130.898236867506	131.097828535596
35433.75	100	152	4	1	11	8	3	9	0	0	0	stim004_stimuli_original_animals_birds_4.png	L	0	0	0	131.297828096664	131.497832046356
35533.75	100	153	4	1	11	9	13	2	0	0	0	stim014_stimuli_original_vehicles_planes_2.png	C	0	0	0	131.697871836135	131.897844090592
35633.75	100	154	4	1	11	10	8	3	1	0	0	stim009_stimuli_original_vehicles_boats_1.png	D	0	0	0	132.097851941362	132.297854915727
35733.75	100	155	4	1	11	11	4	6	0	0	0	stim005_stimuli_original_animals_fish_1.png	G	0	0	0	132.497859596973	132.697869641939
35833.75	100	156	4	1	11	12	8	14	1	1	0	stim009_stimuli_original_vehicles_boats_1.png	V	0	0	0	132.897879686672	133.097875346895
35933.75	100	157	4	1	11	13	2	10	0	0	0	stim003_stimuli_original_animals_birds_3.png	Q	0	0	0	133.297879540594	133.497885440709
36033.75	100	158	4	1	11	14	6	14	0	1	1	stim007_stimuli_original_animals_fish_3.png	V	0	0	0	133.697890609503	133.897894802969
36133.75	100	159	4	1	11	15	1	15	0	0	0	stim002_stimuli_original_animals_birds_2.png	Y	0	0	0	134.097905579256	134.297906115651
36233.75	100	160	4	1	11	16	8	12	0	0	0	stim009_stimuli_original_vehicles_boats_1.png	T	d	134.490481679561	1	134.497913966421	134.697918159887
36333.75	100	161	4	1	11	17	11	5	0	0	0	stim012_stimuli_original_vehicles_boats_4.png	F	0	0	0	134.897938444745	135.097935080295
36433.75	100	162	4	1	11	18	5	11	0	0	0	stim006_stimuli_original_animals_fish_2.png	R	0	0	0	135.297941955738	135.497936884407
36533.75	100	163	4	1	11	19	12	8	0	0	0	stim013_stimuli_original_vehicles_planes_1.png	K	0	0	0	135.697943516076	135.897985987598
36633.75	100	164	4	1	11	20	15	1	0	0	0	stim016_stimuli_original_vehicles_planes_4.png	B	0	0	0	136.097985061118	136.29846370779
36733.75	100	165	4	1	11	21	14	6	1	0	0	stim015_stimuli_original_vehicles_planes_3.png	G	0	0	0	136.497971017845	136.697969116038
36833.75	100	166	4	1	11	22	10	2	0	0	0	stim011_stimuli_original_vehicles_boats_3.png	C	0	0	0	136.897977454355	137.097979941173
36933.75	100	167	4	1	11	23	14	8	1	1	0	stim015_stimuli_original_vehicles_planes_3.png	K	0	0	0	137.297989742365	137.497989303432
37033.75	100	168	4	1	11	24	6	4	0	0	0	stim007_stimuli_original_animals_fish_3.png	E	0	0	0	137.69801300182	137.898005980067
37133.75	100	169	4	1	11	25	3	8	0	1	1	stim004_stimuli_original_animals_birds_4.png	K	0	0	0	138.098011880182	138.298010466155
37233.75	100	170	4	1	11	26	2	13	0	0	0	stim003_stimuli_original_animals_birds_3.png	U	0	0	0	138.498023924418	138.698023729492
37333.75	100	171	4	1	11	27	9	3	0	0	0	stim010_stimuli_original_vehicles_boats_2.png	D	d	138.890614897013	1	138.898030117154	139.098047720268
37433.75	100	172	4	1	11	28	1	10	0	0	0	stim002_stimuli_original_animals_birds_2.png	Q	0	0	0	139.298040698515	139.498041478684
37533.75	100	173	4	1	11	29	11	12	0	0	0	stim012_stimuli_original_vehicles_boats_4.png	T	0	0	0	139.698057131376	139.898060105741
37633.75	100	174	4	1	11	30	4	7	0	0	0	stim005_stimuli_original_animals_fish_1.png	J	0	0	0	140.098067224957	140.298077513697
37733.75	100	175	4	1	11	31	14	9	0	0	0	stim015_stimuli_original_vehicles_planes_3.png	L	0	0	0	140.49807024817	140.698076636065
37833.75	100	176	4	1	11	32	13	5	0	0	0	stim014_stimuli_original_vehicles_planes_2.png	F	0	0	0	140.898081317078	141.098085267004
37933.75	100	177	4	1	11	33	8	14	0	0	0	stim009_stimuli_original_vehicles_boats_1.png	V	0	0	0	141.298095067963	141.498096335912
38033.75	100	178	4	1	11	34	0	0	0	0	0	stim001_stimuli_original_animals_birds_1.png	A	0	0	0	141.698115889449	141.898111305665
38133.75	100	179	4	1	11	35	7	15	0	0	0	stim008_stimuli_original_animals_fish_4.png	Y	0	0	0	142.098119156435	142.298118229955
39167.25	100	180	5	0	32	0	8	0	0	0	0	stim009_stimuli_original_vehicles_boats_1.png	A	0	0	0	146.231586048612	146.431589998305
39267.25	100	181	5	0	32	1	6	8	0	0	0	stim007_stimuli_original_animals_fish_3.png	K	0	0	0	146.631598336622	146.83158009965
39367.25	100	182	5	0	32	2	4	1	0	0	0	stim005_stimuli_original_animals_fish_1.png	B	0	0	0	147.031609649304	147.231610917021
39467.25	100	183	5	0	32	3	5	13	0	0	0	stim006_stimuli_original_animals_fish_2.png	U	0	0	0	147.431629007682	147.631627837429
39567.25	100	184	5	0	32	4	14	12	0	0	0	stim015_stimuli_original_vehicles_planes_3.png	T	0	0	0	147.83163398155	148.031609161757
39667.25	100	185	5	0	32	5	12	5	0	0	0	stim013_stimuli_original_vehicles_planes_1.png	F	0	0	0	148.231612379896	148.431612916291
39767.25	100	186	5	0	32	6	3	2	0	0	0	stim004_stimuli_original_animals_birds_4.png	C	0	0	0	148.63163442025	148.831643246347
39867.25	100	187	5	0	32	7	15	10	1	0	0	stim016_stimuli_original_vehicles_planes_4.png	Q	0	0	0	149.031638175016	149.231634810334
39967.25	100	188	5	0	32	8	9	9	0	0	0	stim010_stimuli_original_vehicles_boats_2.png	L	0	0	0	149.43163949158	149.631648561219
40067.25	100	189	5	0	32	9	15	12	1	1	1	stim016_stimuli_original_vehicles_planes_4.png	T	0	0	0	149.831661288161	150.031661580782
40167.25	100	190	5	0	32	10	11	15	0	0	0	stim012_stimuli_original_vehicles_boats_4.png	Y	0	0	0	150.231673576171	150.431667529745
40267.25	100	191	5	0	32	11	0	12	0	1	0	stim001_stimuli_original_animals_birds_1.png	T	0	0	0	150.63167342986	150.831682743272
40367.25	100	192	5	0	32	12	2	6	0	0	0	stim003_stimuli_original_animals_birds_3.png	G	0	0	0	151.031689131167	151.231686254265
40467.25	100	193	5	0	32	13	7	11	0	0	0	stim008_stimuli_original_animals_fish_4.png	R	0	0	0	151.431693129707	151.631698786048
40567.25	100	194	5	0	32	14	13	7	0	0	0	stim014_stimuli_original_vehicles_planes_2.png	J	0	0	0	151.831705905264	152.031710586511
40667.25	100	195	5	0	32	15	15	3	0	0	0	stim016_stimuli_original_vehicles_planes_4.png	D	0	0	0	152.231727945618	152.431719704997
40767.25	100	196	5	0	32	16	10	14	0	0	0	stim011_stimuli_original_vehicles_boats_3.png	V	0	0	0	152.631725848885	152.83172882325
40867.25	100	197	5	0	32	17	1	4	0	0	0	stim002_stimuli_original_animals_birds_2.png	E	0	0	0	153.031741062645	153.231740867486
40967.25	100	198	5	0	32	18	4	1	0	0	0	stim005_stimuli_original_animals_fish_1.png	B	0	0	0	153.431746280054	153.631747548003
41067.25	100	199	5	0	32	19	14	10	0	0	0	stim015_stimuli_original_vehicles_planes_3.png	Q	0	0	0	153.831756373867	154.031775927404
41167.25	100	200	5	0	32	20	3	15	0	0	0	stim004_stimuli_original_animals_birds_4.png	Y	0	0	0	154.231780852191	154.431777731515
41267.25	100	201	5	0	32	21	7	13	0	0	0	stim008_stimuli_original_animals_fish_4.png	U	0	0	0	154.631784606958	154.831816107035
41367.25	100	202	5	0	32	22	11	7	0	0	0	stim012_stimuli_original_vehicles_boats_4.png	J	0	0	0	155.031806891086	155.2318244942
41467.25	100	203	5	0	32	23	6	2	0	0	0	stim007_stimuli_original_animals_fish_3.png	C	0	0	0	155.432224634336	155.631837757304
41567.25	100	204	5	0	32	24	12	0	1	0	0	stim013_stimuli_original_vehicles_planes_1.png	A	0	0	0	155.831825859612	156.031847851118
41667.25	100	205	5	0	32	25	15	11	0	0	0	stim016_stimuli_original_vehicles_planes_4.png	R	0	0	0	156.231829614146	156.431827224791
41767.25	100	206	5	0	32	26	12	15	1	1	1	stim013_stimuli_original_vehicles_planes_1.png	Y	0	0	0	156.631836538436	156.831866575638
41867.25	100	207	5	0	32	27	9	9	0	0	0	stim010_stimuli_original_vehicles_boats_2.png	L	d	157.035464764107	1	157.031871500658	157.231875694124
41967.25	100	208	5	0	32	28	10	15	0	1	0	stim011_stimuli_original_vehicles_boats_3.png	Y	0	0	0	157.431860139128	157.631858237321
42067.25	100	209	5	0	32	29	2	3	0	0	0	stim003_stimuli_original_animals_birds_3.png	D	0	0	0	157.83186608809	158.031864917837
42167.25	100	210	5	0	32	30	5	12	0	0	0	stim006_stimuli_original_animals_fish_2.png	T	0	0	0	158.231890078867	158.431890859036
42267.25	100	211	5	0	32	31	12	14	0	0	0	stim013_stimuli_original_vehicles_planes_1.png	V	0	0	0	158.631885056384	158.831891931826
42367.25	100	212	5	0	32	32	13	5	0	0	0	stim014_stimuli_original_vehicles_planes_2.png	F	0	0	0	159.031900757691	159.231908120913
42467.25	100	213	5	0	32	33	1	4	0	0	0	stim002_stimuli_original_animals_birds_2.png	E	0	0	0	159.431916946778	159.631910656346
42567.25	100	214	5	0	32	34	8	6	0	0	0	stim009_stimuli_original_vehicles_boats_1.png	G	0	0	0	159.831947032828	160.031927089207
42667.25	100	215	5	0	32	35	0	8	0	0	0	stim001_stimuli_original_animals_birds_1.png	K	0	0	0	160.231928356923	160.431929624872
43479.75	100	216	6	1	20	0	3	7	0	0	0	stim004_stimuli_original_animals_birds_4.png	J	0	0	0	163.482021979755	163.68202007818
43579.75	100	217	6	1	20	1	14	5	0	0	0	stim015_stimuli_original_vehicles_planes_3.png	F	0	0	0	163.882056698203	164.082060647896
43679.75	100	218	6	1	20	2	6	2	0	0	0	stim007_stimuli_original_animals_fish_3.png	C	0	0	0	164.282066060463	164.482041972224
43779.75	100	219	6	1	20	3	7	15	0	0	0	stim008_stimuli_original_animals_fish_4.png	Y	0	0	0	164.682044215268	164.882050603162
43879.75	100	220	6	1	20	4	1	9	0	0	0	stim002_stimuli_original_animals_birds_2.png	L	0	0	0	165.082058209926	165.282067035791
43979.75	100	221	6	1	20	5	2	7	0	1	0	stim003_stimuli_original_animals_birds_3.png	J	0	0	0	165.482070254162	165.682074203854
44079.75	100	222	6	1	20	6	10	3	0	0	0	stim011_stimuli_original_vehicles_boats_3.png	D	0	0	0	165.882079128642	166.082083566114
44179.75	100	223	6	1	20	7	7	7	1	1	1	stim008_stimuli_original_animals_fish_4.png	J	0	0	0	166.282091416651	166.48208902753
44279.75	100	224	6	1	20	8	12	10	0	0	0	stim013_stimuli_original_vehicles_planes_1.png	Q	d	166.873898103135	1	166.682131742826	166.882129841018
44379.75	100	225	6	1	20	9	7	12	1	0	0	stim008_stimuli_original_animals_fish_4.png	T	0	0	0	167.082143055508	167.282126525417
44479.75	100	226	6	1	20	10	4	8	0	0	0	stim005_stimuli_original_animals_fish_1.png	K	0	0	0	167.482119015884	167.682122234255
44579.75	100	227	6	1	20	11	13	0	0	0	0	stim014_stimuli_original_vehicles_planes_2.png	A	0	0	0	167.882137642941	168.082135741366
44679.75	100	228	6	1	20	12	9	1	0	0	0	stim010_stimuli_original_vehicles_boats_2.png	B	0	0	0	168.282149199629	168.482562505407
44779.75	100	229	6	1	20	13	11	4	0	0	0	stim012_stimuli_original_vehicles_boats_4.png	E	0	0	0	168.682154660812	168.88215836673
44879.75	100	230	6	1	20	14	0	6	0	0	0	stim001_stimuli_original_animals_birds_1.png	G	0	0	0	169.082164267078	169.282168704318
44979.75	100	231	6	1	20	15	8	13	0	0	0	stim009_stimuli_original_vehicles_boats_1.png	U	0	0	0	169.482172410237	169.682176116155
45079.75	100	232	6	1	20	16	15	11	0	0	0	stim016_stimuli_original_vehicles_planes_4.png	R	0	0	0	169.88218494202	170.082185478415
45179.75	100	233	6	1	20	17	5	14	0	0	0	stim006_stimuli_original_animals_fish_2.png	V	0	0	0	170.282192841405	170.482210932067
45279.75	100	234	6	1	20	18	14	5	0	0	0	stim015_stimuli_original_vehicles_planes_3.png	F	0	0	0	170.682220733259	170.882222732529
45379.75	100	235	6	1	20	19	11	15	0	0	0	stim012_stimuli_original_vehicles_boats_4.png	Y	0	0	0	171.082226925995	171.282226487063
45479.75	100	236	6	1	20	20	13	8	0	0	0	stim014_stimuli_original_vehicles_planes_2.png	K	0	0	0	171.482236288255	171.682237799978
45579.75	100	237	6	1	20	21	6	0	0	0	0	stim007_stimuli_original_animals_fish_3.png	A	0	0	0	171.88224760117	172.082248625113
45679.75	100	238	6	1	20	22	4	11	0	0	0	stim005_stimuli_original_animals_fish_1.png	R	0	0	0	172.282260864275	172.482263351092
45779.75	100	239	6	1	20	23	1	9	0	0	0	stim002_stimuli_original_animals_birds_2.png	L	0	0	0	172.682274371386	172.882271494484
45879.75	100	240	6	1	20	24	0	13	0	0	0	stim001_stimuli_original_animals_birds_1.png	U	0	0	0	173.08227568795	173.282283538487
45979.75	100	241	6	1	20	25	8	4	0	0	0	stim009_stimuli_original_vehicles_boats_1.png	E	0	0	0	173.482287732186	173.682291681878
46079.75	100	242	6	1	20	26	12	7	0	1	0	stim013_stimuli_original_vehicles_planes_1.png	J	0	0	0	173.882309528766	174.082305188756
46179.75	100	243	6	1	20	27	10	12	0	0	0	stim011_stimuli_original_vehicles_boats_3.png	T	0	0	0	174.282313527074	174.482316257898
46279.75	100	244	6	1	20	28	7	7	1	1	1	stim008_stimuli_original_animals_fish_4.png	J	0	0	0	174.682320938911	174.882329277229
46379.75	100	245	6	1	20	29	3	10	0	0	0	stim004_stimuli_original_animals_birds_4.png	Q	d	175.274110314902	1	175.082334202249	175.282339127036
46479.75	100	246	6	1	20	30	7	2	1	0	0	stim008_stimuli_original_animals_fish_4.png	C	0	0	0	175.482346246485	175.682349952171
46579.75	100	247	6	1	20	31	9	1	0	0	0	stim010_stimuli_original_vehicles_boats_2.png	B	0	0	0	175.882351463893	176.082352244062
46679.75	100	248	6	1	20	32	15	7	0	0	0	stim016_stimuli_original_vehicles_planes_4.png	J	0	0	0	176.282350586262	176.482354048174
46780	100	249	6	1	20	33	2	6	0	0	0	stim003_stimuli_original_animals_birds_3.png	G	0	0	0	176.682362874271	176.88236609241
46880	100	250	6	1	20	34	5	14	0	0	0	stim006_stimuli_original_animals_fish_2.png	V	0	0	0	177.082374918275	177.282373991795
46980	100	251	6	1	20	35	7	3	0	0	0	stim008_stimuli_original_animals_fish_4.png	D	0	0	0	177.482389156939	177.682385792257
49121.5	100	252	7	0	26	0	1	1	0	0	0	stim002_stimuli_original_animals_birds_2.png	B	0	0	0	186.049292416079	186.249290026724
49221.5	100	253	7	0	26	1	15	9	0	0	0	stim016_stimuli_original_vehicles_planes_4.png	L	0	0	0	186.449299827917	186.649307678686
49321.5	100	254	7	0	26	2	9	12	0	0	0	stim010_stimuli_original_vehicles_boats_2.png	T	0	0	0	186.849310653051	187.049300461775
49421.5	100	255	7	0	26	3	13	0	0	0	0	stim014_stimuli_original_vehicles_planes_2.png	A	0	0	0	187.249312701169	187.449316407088
49521.5	100	256	7	0	26	4	10	3	0	0	0	stim011_stimuli_original_vehicles_boats_3.png	D	0	0	0	187.649324501399	187.849332595943
49621.5	100	257	7	0	26	5	5	11	0	0	0	stim006_stimuli_original_animals_fish_2.png	R	0	0	0	188.04934093426	188.249342445983
49721.5	100	258	7	0	26	6	7	4	0	0	0	stim008_stimuli_original_animals_fish_4.png	E	0	0	0	188.449345176574	188.649352539564
49821.5	100	259	7	0	26	7	13	8	1	0	0	stim014_stimuli_original_vehicles_planes_2.png	K	0	0	0	188.849358683685	189.049357269425
49921.5	100	260	7	0	26	8	12	5	0	0	0	stim013_stimuli_original_vehicles_planes_1.png	F	0	0	0	189.249368045945	189.449370288989
50021.5	100	261	7	0	26	9	13	2	1	0	1	stim014_stimuli_original_vehicles_planes_2.png	C	0	0	0	189.649376676651	189.849381114123
50121.5	100	262	7	0	26	10	8	6	0	0	0	stim009_stimuli_original_vehicles_boats_1.png	G	d	190.259433230851	1	190.049386038911	190.24939023261
50221.5	100	263	7	0	26	11	11	12	0	1	0	stim012_stimuli_original_vehicles_boats_4.png	T	0	0	0	190.449404422194	190.649422269082
50321.75	100	264	7	0	26	12	14	7	0	0	0	stim015_stimuli_original_vehicles_planes_3.png	J	0	0	0	190.849415003555	191.049411395099
50421.75	100	265	7	0	26	13	3	12	0	1	0	stim004_stimuli_original_animals_birds_4.png	T	0	0	0	191.249422171619	191.449422220234
50521.75	100	266	7	0	26	14	0	14	0	0	0	stim001_stimuli_original_animals_birds_1.png	V	0	0	0	191.649431777652	191.849434996024
50621.75	100	267	7	0	26	15	4	10	0	0	0	stim005_stimuli_original_animals_fish_1.png	Q	0	0	0	192.049877558835	192.24944362673
50721.75	100	268	7	0	26	16	2	15	0	0	0	stim003_stimuli_original_animals_birds_3.png	Y	0	0	0	192.449446845101	192.649455183418
50821.75	100	269	7	0	26	17	6	13	0	0	0	stim007_stimuli_original_animals_fish_3.png	U	0	0	0	192.849456694908	193.049460888607
50921.75	100	270	7	0	26	18	13	6	0	0	0	stim014_stimuli_original_vehicles_planes_2.png	G	0	0	0	193.249466301175	193.449477808783
51021.75	100	271	7	0	26	19	15	2	0	0	0	stim016_stimuli_original_vehicles_planes_4.png	C	0	0	0	193.649483465357	193.849485464394
51121.75	100	272	7	0	26	20	10	4	0	0	0	stim011_stimuli_original_vehicles_boats_3.png	E	0	0	0	194.049491608515	194.249490438262
51221.75	100	273	7	0	26	21	14	0	0	0	0	stim015_stimuli_original_vehicles_planes_3.png	A	0	0	0	194.449496094603	194.649500775617
51321.75	100	274	7	0	26	22	12	3	1	0	0	stim013_stimuli_original_vehicles_planes_1.png	D	0	0	0	194.84951179591	195.049528911244
51421.75	100	275	7	0	26	23	7	14	0	0	0	stim008_stimuli_original_animals_fish_4.png	V	0	0	0	195.249523108592	195.449522913666
51521.75	100	276	7	0	26	24	12	11	1	0	1	stim013_stimuli_original_vehicles_planes_1.png	R	0	0	0	195.649537103251	195.849537152098
51621.75	100	277	7	0	26	25	6	8	0	0	0	stim007_stimuli_original_animals_fish_3.png	K	d	196.241332574515	1	196.049567433307	196.249544320162
51721.75	100	278	7	0	26	26	2	13	0	1	0	stim003_stimuli_original_animals_birds_3.png	U	0	0	0	196.44954924495	196.649577819509
51821.75	100	279	7	0	26	27	5	12	0	0	0	stim006_stimuli_original_animals_fish_2.png	T	0	0	0	196.849569578655	197.049563776003
51921.75	100	280	7	0	26	28	8	13	0	1	0	stim009_stimuli_original_vehicles_boats_1.png	U	0	0	0	197.249574308749	197.450008582091
52021.75	100	281	7	0	26	29	4	7	0	0	0	stim005_stimuli_original_animals_fish_1.png	J	0	0	0	197.649588059401	197.849584938725
52121.75	100	282	7	0	26	30	11	5	0	0	0	stim012_stimuli_original_vehicles_boats_4.png	F	0	0	0	198.049596202793	198.249597226735
52221.75	100	283	7	0	26	31	3	10	0	0	0	stim004_stimuli_original_animals_birds_4.png	Q	0	0	0	198.449605808826	198.64960805187
52321.75	100	284	7	0	26	32	0	13	0	0	0	stim001_stimuli_original_animals_birds_1.png	U	0	0	0	198.84962492343	199.049627166474
52421.75	100	285	7	0	26	33	12	9	0	0	0	stim013_stimuli_original_vehicles_planes_1.png	L	0	0	0	199.249625996221	199.449628970819
52521.75	100	286	7	0	26	34	9	15	0	0	0	stim010_stimuli_original_vehicles_boats_2.png	Y	0	0	0	199.649638284231	199.849640527274
52621.75	100	287	7	0	26	35	1	1	0	0	0	stim002_stimuli_original_animals_birds_2.png	B	0	0	0	200.049646915169	200.249657447683
54280	100	288	8	1	46	0	14	4	0	0	0	stim015_stimuli_original_vehicles_planes_3.png	E	0	0	0	206.683156961575	206.883157985518
54380	100	289	8	1	46	1	4	7	0	0	0	stim005_stimuli_original_animals_fish_1.png	J	0	0	0	207.083201188594	207.28319050977
54480	100	290	8	1	46	2	6	9	0	0	0	stim007_stimuli_original_animals_fish_3.png	L	0	0	0	207.48319202126	207.68318451196
54580	100	291	8	1	46	3	2	8	0	0	0	stim003_stimuli_original_animals_birds_3.png	K	0	0	0	207.88318943698	208.083223862806
54680	100	292	8	1	46	4	7	13	0	0	0	stim008_stimuli_original_animals_fish_4.png	U	0	0	0	208.283197823912	208.483518969733
54780	100	293	8	1	46	5	0	1	0	0	0	stim001_stimuli_original_animals_birds_1.png	B	0	0	0	208.683217182523	208.883214793168
54880	100	294	8	1	46	6	13	6	0	0	0	stim014_stimuli_original_vehicles_planes_2.png	G	0	0	0	209.083222643705	209.283224155428
54980	100	295	8	1	46	7	4	2	1	0	0	stim005_stimuli_original_animals_fish_1.png	C	0	0	0	209.483230299316	209.683240588056
55080	100	296	8	1	46	8	10	14	0	0	0	stim011_stimuli_original_vehicles_boats_3.png	V	0	0	0	209.883271844592	210.08326019044
55180	100	297	8	1	46	9	4	5	1	0	0	stim005_stimuli_original_animals_fish_1.png	F	0	0	0	210.283287058119	210.483291495591
55280	100	298	8	1	46	10	3	13	0	1	0	stim004_stimuli_original_animals_birds_4.png	U	0	0	0	210.683268138673	210.88327306346
55380	100	299	8	1	46	11	11	3	0	0	0	stim012_stimuli_original_vehicles_boats_4.png	D	0	0	0	211.083303832216	211.283287058119
55480	100	300	8	1	46	12	12	13	0	1	1	stim013_stimuli_original_vehicles_planes_1.png	U	0	0	0	211.483288082294	211.683290812885
55580	100	301	8	1	46	13	5	15	0	0	0	stim006_stimuli_original_animals_fish_2.png	Y	d	212.083481813082	1	211.883300614078	212.083301150473
55680	100	302	8	1	46	14	1	10	0	0	0	stim002_stimuli_original_animals_birds_2.png	Q	0	0	0	212.283309732564	212.483324165922
55780	100	303	8	1	46	15	8	12	0	0	0	stim009_stimuli_original_vehicles_boats_1.png	T	0	0	0	212.683319338597	212.88331792457
55880	100	304	8	1	46	16	15	11	0	0	0	stim016_stimuli_original_vehicles_planes_4.png	R	0	0	0	213.083325775107	213.283326555276
55980	100	305	8	1	46	17	9	0	0	0	0	stim010_stimuli_original_vehicles_boats_2.png	A	0	0	0	213.48333757557	213.683341525262
56080	100	306	8	1	46	18	0	9	0	0	0	stim001_stimuli_original_animals_birds_1.png	L	0	0	0	213.883358153049	214.083356982796
56180	100	307	8	1	46	19	11	15	0	0	0	stim012_stimuli_original_vehicles_boats_4.png	Y	0	0	0	214.283362639137	214.48336488218
56280	100	308	8	1	46	20	12	8	0	0	0	stim013_stimuli_original_vehicles_planes_1.png	K	0	0	0	214.683396870038	214.883399600629
56380	100	309	8	1	46	21	10	1	0	0	0	stim011_stimuli_original_vehicles_boats_3.png	B	0	0	0	215.083378681913	215.283381900052
56480	100	310	8	1	46	22	15	5	0	0	0	stim016_stimuli_original_vehicles_planes_4.png	F	0	0	0	215.483388775494	215.683391506085
56580	100	311	8	1	46	23	13	12	1	0	0	stim014_stimuli_original_vehicles_planes_2.png	T	0	0	0	215.883403501706	216.083404769422
56680	100	312	8	1	46	24	3	11	0	0	0	stim004_stimuli_original_animals_birds_4.png	R	0	0	0	216.283412376186	216.483425834449
56780	100	313	8	1	46	25	13	3	1	0	0	stim014_stimuli_original_vehicles_planes_2.png	D	0	0	0	216.68342905282	216.883429345442
56880	100	314	8	1	46	26	5	4	0	1	0	stim006_stimuli_original_animals_fish_2.png	E	0	0	0	217.083437927533	217.283441145672
56980	100	315	8	1	46	27	14	10	0	0	0	stim015_stimuli_original_vehicles_planes_3.png	Q	0	0	0	217.48344777734	217.683473913698
57080	100	316	8	1	46	28	2	4	0	1	1	stim003_stimuli_original_animals_birds_3.png	E	0	0	0	217.883466160623	218.08345962665
57180	100	317	8	1	46	29	6	13	0	0	0	stim007_stimuli_original_animals_fish_3.png	U	0	0	0	218.283467233414	218.483464112738
57280	100	318	8	1	46	30	1	0	0	0	0	stim002_stimuli_original_animals_birds_2.png	A	0	0	0	218.683478058549	218.883481520694
57380.25	100	319	8	1	46	31	13	7	0	0	0	stim014_stimuli_original_vehicles_planes_2.png	J	0	0	0	219.083907992113	219.28352623526
57480.25	100	320	8	1	46	32	8	2	0	0	0	stim009_stimuli_original_vehicles_boats_1.png	C	0	0	0	219.483509217389	219.683501708088
57580.25	100	321	8	1	46	33	9	6	0	0	0	stim010_stimuli_original_vehicles_boats_2.png	G	0	0	0	219.883505414007	220.083507657051
57680.25	100	322	8	1	46	34	7	4	0	0	0	stim008_stimuli_original_animals_fish_4.png	E	0	0	0	220.283516970463	220.483520676382
57780.25	100	323	8	1	46	35	4	14	0	0	0	stim005_stimuli_original_animals_fish_1.png	V	0	0	0	220.683530721348	220.883535158588
58563.5	100	324	9	0	11	0	15	7	0	0	0	stim016_stimuli_original_vehicles_planes_4.png	J	0	0	0	223.816979815485	224.016955970787
58663.5	100	325	9	0	11	1	0	0	0	0	0	stim001_stimuli_original_animals_birds_1.png	A	0	0	0	224.216963821556	224.416972403647
58763.5	100	326	9	0	11	2	14	8	0	0	0	stim015_stimuli_original_vehicles_planes_3.png	K	0	0	0	224.616977816215	224.817024676362
58863.5	100	327	9	0	11	3	5	13	0	0	0	stim006_stimuli_original_animals_fish_2.png	U	0	0	0	225.016991810873	225.216984057799
58963.5	100	328	9	0	11	4	9	14	0	0	0	stim010_stimuli_original_vehicles_boats_2.png	V	0	0	0	225.416987032164	225.616990006762
59063.5	100	329	9	0	11	5	7	4	0	0	0	stim008_stimuli_original_animals_fish_4.png	E	0	0	0	225.816992249805	226.016999125015
59163.5	100	330	9	0	11	6	12	11	0	0	0	stim013_stimuli_original_vehicles_planes_1.png	R	0	0	0	226.217009901535	226.417007999728
59263.5	100	331	9	0	11	7	10	1	0	0	0	stim011_stimuli_original_vehicles_boats_3.png	B	0	0	0	226.617439591326	226.817026626784
59363.5	100	332	9	0	11	8	3	9	0	0	0	stim004_stimuli_original_animals_birds_4.png	L	0	0	0	227.017027894733	227.217034282396
59463.5	100	333	9	0	11	9	13	2	0	0	0	stim014_stimuli_original_vehicles_planes_2.png	C	0	0	0	227.41704310826	227.61707168282
59563.5	100	334	9	0	11	10	8	3	1	0	0	stim009_stimuli_original_vehicles_boats_1.png	D	0	0	0	227.817081727786	228.017066660337
59663.5	100	335	9	0	11	11	4	6	0	0	0	stim005_stimuli_original_animals_fish_1.png	G	0	0	0	228.217091821367	228.41709333309
59763.5	100	336	9	0	11	12	8	14	1	1	1	stim009_stimuli_original_vehicles_boats_1.png	V	0	0	0	228.61707460857	228.817092211684
59863.5	100	337	9	0	11	13	2	10	0	0	0	stim003_stimuli_original_animals_birds_3.png	Q	0	0	0	229.01708104508	229.217085238546
59963.5	100	338	9	0	11	14	6	14	0	1	0	stim007_stimuli_original_animals_fish_3.png	V	0	0	0	229.41709333309	229.617095576134
60063.5	100	339	9	0	11	15	1	15	0	0	0	stim002_stimuli_original_animals_birds_2.png	Y	0	0	0	229.817106352421	230.017111033667
60163.5	100	340	9	0	11	16	8	12	0	0	0	stim009_stimuli_original_vehicles_boats_1.png	T	0	0	0	230.217116933782	230.417115032207
60263.5	100	341	9	0	11	17	11	5	0	0	0	stim012_stimuli_original_vehicles_boats_4.png	F	0	0	0	230.617134585744	230.817127807764
60363.5	100	342	9	0	11	18	5	11	0	0	0	stim006_stimuli_original_animals_fish_2.png	R	0	0	0	231.017135902308	231.217143021524
60463.5	100	343	9	0	11	19	12	8	0	0	0	stim013_stimuli_original_vehicles_planes_1.png	K	0	0	0	231.417146727443	231.617147507612
60563.5	100	344	9	0	11	20	15	1	0	0	0	stim016_stimuli_original_vehicles_planes_4.png	B	0	0	0	231.817153407726	232.017585243098
60663.5	100	345	9	0	11	21	14	6	1	0	0	stim015_stimuli_original_vehicles_planes_3.png	G	0	0	0	232.217169596581	232.417169157881
60763.5	100	346	9	0	11	22	10	2	0	0	0	stim011_stimuli_original_vehicles_boats_3.png	C	0	0	0	232.617173595121	232.817180470563
60863.5	100	347	9	0	11	23	14	8	1	1	1	stim015_stimuli_original_vehicles_planes_3.png	K	0	0	0	233.017184176482	233.217188857729
60963.5	100	348	9	0	11	24	6	4	0	0	0	stim007_stimuli_original_animals_fish_3.png	E	d	233.608964287676	1	233.417198171141	233.617200170411
61063.5	100	349	9	0	11	25	3	8	0	1	0	stim004_stimuli_original_animals_birds_4.png	K	0	0	0	233.817208508728	234.017213921295
61163.5	100	350	9	0	11	26	2	13	0	0	0	stim003_stimuli_original_animals_birds_3.png	U	0	0	0	234.217217627214	234.417227915954
61263.5	100	351	9	0	11	27	9	3	0	0	0	stim010_stimuli_original_vehicles_boats_2.png	D	0	0	0	234.617228208575	234.817232889589
61363.5	100	352	9	0	11	28	1	10	0	0	0	stim002_stimuli_original_animals_birds_2.png	Q	0	0	0	235.017250736477	235.217254442396
61463.5	100	353	9	0	11	29	11	12	0	0	0	stim012_stimuli_original_vehicles_boats_4.png	T	0	0	0	235.417273508152	235.617269168375
61563.5	100	354	9	0	11	30	4	7	0	0	0	stim005_stimuli_original_animals_fish_1.png	J	0	0	0	235.81727019255	236.017290477408
61663.5	100	355	9	0	11	31	14	9	0	0	0	stim015_stimuli_original_vehicles_planes_3.png	L	0	0	0	236.217281505233	236.417285454925
61763.5	100	356	9	0	11	32	13	5	0	0	0	stim014_stimuli_original_vehicles_planes_2.png	F	0	0	0	236.617297694087	236.817299693357
61863.5	100	357	9	0	11	33	8	14	0	0	0	stim009_stimuli_original_vehicles_boats_1.png	V	0	0	0	237.017302423948	237.217314419569
61963.5	100	358	9	0	11	34	0	0	0	0	0	stim001_stimuli_original_animals_birds_1.png	A	0	0	0	237.417323489208	237.617316467455
62063.5	100	359	9	0	11	35	7	15	0	0	0	stim008_stimuli_original_animals_fish_4.png	Y	0	0	0	237.817333095241	238.017320709769
63017.75	100	360	10	1	44	0	7	13	0	0	0	stim008_stimuli_original_animals_fish_4.png	U	0	0	0	241.634087143233	241.834082072135
63117.75	100	361	10	1	44	1	11	8	0	0	0	stim012_stimuli_original_vehicles_boats_4.png	K	0	0	0	242.034090654226	242.234106794233
63217.75	100	362	10	1	44	2	4	1	0	0	0	stim005_stimuli_original_animals_fish_1.png	B	0	0	0	242.434111475479	242.634123470867
63317.75	100	363	10	1	44	3	8	9	0	0	0	stim009_stimuli_original_vehicles_boats_1.png	L	0	0	0	242.834126201458	243.034120398806
63417.75	100	364	10	1	44	4	0	11	1	0	0	stim001_stimuli_original_animals_birds_1.png	R	0	0	0	243.234125323826	243.434128054418
63517.75	100	365	10	1	44	5	2	14	0	0	0	stim003_stimuli_original_animals_birds_3.png	V	0	0	0	243.634141756454	243.834144731052
63617.75	100	366	10	1	44	6	0	6	1	0	0	stim001_stimuli_original_animals_birds_1.png	G	0	0	0	244.034149412299	244.234160676133
63717.75	100	367	10	1	44	7	6	9	0	1	0	stim007_stimuli_original_animals_fish_3.png	L	0	0	0	244.434162919177	244.634162968025
63817.75	100	368	10	1	44	8	9	15	0	0	0	stim010_stimuli_original_vehicles_boats_2.png	Y	0	0	0	244.834166186163	245.034168429207
63917.75	100	369	10	1	44	9	3	9	0	1	1	stim004_stimuli_original_animals_birds_4.png	L	0	0	0	245.234177499078	245.434179985896
64017.75	100	370	10	1	44	10	15	5	0	0	0	stim016_stimuli_original_vehicles_planes_4.png	F	0	0	0	245.634205634706	245.834206902422
64117.75	100	371	10	1	44	11	14	12	0	0	0	stim015_stimuli_original_vehicles_planes_3.png	T	0	0	0	246.034213777864	246.234230893198
64217.75	100	372	10	1	44	12	10	3	0	0	0	stim011_stimuli_original_vehicles_boats_3.png	D	0	0	0	246.434239231516	246.634216362145
64317.75	100	373	10	1	44	13	0	7	0	0	0	stim001_stimuli_original_animals_birds_1.png	J	0	0	0	246.834272487089	247.034223530209
64417.75	100	374	10	1	44	14	12	10	0	0	0	stim013_stimuli_original_vehicles_planes_1.png	Q	0	0	0	247.23422967433	247.434250202961
64517.75	100	375	10	1	44	15	5	4	0	0	0	stim006_stimuli_original_animals_fish_2.png	E	0	0	0	247.634259272832	247.834267610917
64617.75	100	376	10	1	44	16	13	0	0	0	0	stim014_stimuli_original_vehicles_planes_2.png	A	0	0	0	248.034261564491	248.234265514184
64717.75	100	377	10	1	44	17	1	2	0	0	0	stim002_stimuli_original_animals_birds_2.png	C	0	0	0	248.434274340048	248.634304377483
64817.75	100	378	10	1	44	18	2	1	0	0	0	stim003_stimuli_original_animals_birds_3.png	B	0	0	0	248.83430271945	249.034289115109
64917.75	100	379	10	1	44	19	0	13	0	0	0	stim001_stimuli_original_animals_birds_1.png	U	0	0	0	249.234317689436	249.434299208689
65017.75	100	380	10	1	44	20	4	5	0	0	0	stim005_stimuli_original_animals_fish_1.png	F	0	0	0	249.634300720412	249.834302963456
65117.75	100	381	10	1	44	21	10	12	0	0	0	stim011_stimuli_original_vehicles_boats_3.png	T	0	0	0	250.034309838898	250.234307937091
65217.75	100	382	10	1	44	22	7	0	0	0	0	stim008_stimuli_original_animals_fish_4.png	A	0	0	0	250.434314812534	250.634336560266
65318	100	383	10	1	44	23	3	10	0	0	0	stim004_stimuli_original_animals_birds_4.png	Q	0	0	0	250.834740357473	251.034339339705
65417.75	100	384	10	1	44	24	12	14	0	0	0	stim013_stimuli_original_vehicles_planes_1.png	V	0	0	0	251.234338656999	251.43434431334
65517.75	100	385	10	1	44	25	5	15	0	0	0	stim006_stimuli_original_animals_fish_2.png	Y	0	0	0	251.634364598431	251.834381226217
65617.75	100	386	10	1	44	26	9	3	1	0	0	stim010_stimuli_original_vehicles_boats_2.png	D	0	0	0	252.034387857886	252.234377910383
65717.75	100	387	10	1	44	27	15	9	0	0	0	stim016_stimuli_original_vehicles_planes_4.png	L	0	0	0	252.434369425755	252.634372400353
65817.75	100	388	10	1	44	28	9	6	1	0	0	stim010_stimuli_original_vehicles_boats_2.png	G	0	0	0	252.834378544241	253.034381518839
65917.75	100	389	10	1	44	29	6	0	0	1	0	stim007_stimuli_original_animals_fish_3.png	A	d	253.226941722678	0	253.234392051352	253.434396244818
66017.75	100	390	10	1	44	30	14	2	0	0	0	stim015_stimuli_original_vehicles_planes_3.png	C	0	0	0	253.634412141284	253.834412189899
66117.75	100	391	10	1	44	31	11	0	0	1	1	stim012_stimuli_original_vehicles_boats_4.png	A	0	0	0	254.034422966419	254.234416188439
66217.75	100	392	10	1	44	32	9	8	0	0	0	stim010_stimuli_original_vehicles_boats_2.png	K	0	0	0	254.43442769628	254.634428720223
66317.75	100	393	10	1	44	33	1	4	0	0	0	stim002_stimuli_original_animals_birds_2.png	E	0	0	0	254.834440959617	255.034437107388
66417.75	100	394	10	1	44	34	8	11	0	0	0	stim009_stimuli_original_vehicles_boats_1.png	R	0	0	0	255.234446664574	255.434447932523
66517.75	100	395	10	1	44	35	13	7	0	0	0	stim014_stimuli_original_vehicles_planes_2.png	J	0	0	0	255.634473825106	255.834466315806
67342.75	100	396	11	0	35	0	10	6	0	0	0	stim011_stimuli_original_vehicles_boats_3.png	G	0	0	0	258.934549357276	259.134568910813
67442.75	100	397	11	0	35	1	1	8	0	0	0	stim002_stimuli_original_animals_birds_2.png	K	0	0	0	259.334564570803	259.534570471151
67542.75	100	398	11	0	35	2	5	15	0	0	0	stim006_stimuli_original_animals_fish_2.png	Y	0	0	0	259.734588318039	259.934582027607
67642.75	100	399	11	0	35	3	14	9	0	0	0	stim015_stimuli_original_vehicles_planes_3.png	L	0	0	0	260.134609139292	260.334611626109
67742.75	100	400	11	0	35	4	3	0	1	0	0	stim004_stimuli_original_animals_birds_4.png	A	0	0	0	260.534611674957	260.734626108315
67842.75	100	401	11	0	35	5	12	2	0	0	0	stim013_stimuli_original_vehicles_planes_1.png	C	0	0	0	260.93462664471	261.134645710699
67943	100	402	11	0	35	6	3	12	1	0	1	stim004_stimuli_original_animals_birds_4.png	T	0	0	0	261.33463600697	261.534617038677
68042.75	100	403	11	0	35	7	13	7	0	0	0	stim014_stimuli_original_vehicles_planes_2.png	J	0	0	0	261.734623670345	261.93462957046
68143	100	404	11	0	35	8	15	3	0	0	0	stim016_stimuli_original_vehicles_planes_4.png	D	d	262.326405244414	1	262.134638640098	262.334639664274
68243	100	405	11	0	35	9	8	1	0	0	0	stim009_stimuli_original_vehicles_boats_1.png	B	0	0	0	262.534656048287	262.734654634027
68343	100	406	11	0	35	10	6	11	0	0	0	stim007_stimuli_original_animals_fish_3.png	R	0	0	0	262.934656877071	263.134660095442
68443	100	407	11	0	35	11	0	4	0	0	0	stim001_stimuli_original_animals_birds_1.png	E	0	0	0	263.334669408854	263.534677503398
68543	100	408	11	0	35	12	4	3	0	1	0	stim005_stimuli_original_animals_fish_1.png	D	0	0	0	263.734678283567	263.934892153135
68643	100	409	11	0	35	13	7	14	0	0	0	stim008_stimuli_original_animals_fish_4.png	V	0	0	0	264.134690571576	264.334722559433
68743	100	410	11	0	35	14	2	3	0	1	0	stim003_stimuli_original_animals_birds_3.png	D	0	0	0	264.534711392829	264.734705590177
68843	100	411	11	0	35	15	3	13	0	0	0	stim004_stimuli_original_animals_birds_4.png	U	0	0	0	264.93470953987	265.134712758241
68943	100	412	11	0	35	16	9	10	0	0	0	stim010_stimuli_original_vehicles_boats_2.png	Q	0	0	0	265.334719877457	265.534726509126
69043	100	413	11	0	35	17	11	5	0	0	0	stim012_stimuli_original_vehicles_boats_4.png	F	0	0	0	265.734733384568	265.934733920963
69143	100	414	11	0	35	18	5	11	0	0	0	stim006_stimuli_original_animals_fish_2.png	R	0	0	0	266.134743722156	266.334745477419
69243	100	415	11	0	35	19	10	9	0	0	0	stim011_stimuli_original_vehicles_boats_3.png	L	0	0	0	266.534753815737	266.734754595906
69343	100	416	11	0	35	20	13	3	0	0	0	stim014_stimuli_original_vehicles_planes_2.png	D	0	0	0	266.934762934223	267.134763958165
69443	100	417	11	0	35	21	3	2	1	0	0	stim004_stimuli_original_animals_birds_4.png	C	0	0	0	267.334775222233	267.534776002401
69543	100	418	11	0	35	22	14	7	0	0	0	stim015_stimuli_original_vehicles_planes_3.png	J	0	0	0	267.734783609398	267.934790484607
69643	100	419	11	0	35	23	3	4	1	0	1	stim004_stimuli_original_animals_birds_4.png	E	0	0	0	268.13479492208	268.334801309742
69743	100	420	11	0	35	24	4	0	0	0	0	stim005_stimuli_original_animals_fish_1.png	A	d	268.726577959023	1	268.534810623387	268.734810184455
69843	100	421	11	0	35	25	11	6	0	0	0	stim012_stimuli_original_vehicles_boats_4.png	G	0	0	0	268.934818278998	269.134821253363
69943	100	422	11	0	35	26	1	8	0	0	0	stim002_stimuli_original_animals_birds_2.png	K	0	0	0	269.334838856477	269.534830371849
70043	100	423	11	0	35	27	3	15	0	0	0	stim004_stimuli_original_animals_birds_4.png	Y	0	0	0	269.734840416815	269.934842903633
70143	100	424	11	0	35	28	7	13	0	0	0	stim008_stimuli_original_animals_fish_4.png	U	0	0	0	270.134856849676	270.334852509899
70243	100	425	11	0	35	29	12	3	0	1	0	stim013_stimuli_original_vehicles_planes_1.png	D	0	0	0	270.534856215818	270.734864310129
70343	100	426	11	0	35	30	2	12	0	0	0	stim003_stimuli_original_animals_birds_3.png	T	0	0	0	270.934869966703	271.134874160169
70443	100	427	11	0	35	31	0	3	0	1	0	stim001_stimuli_original_animals_birds_1.png	D	0	0	0	271.334882010706	271.534886935726
70543	100	428	11	0	35	32	9	14	0	0	0	stim010_stimuli_original_vehicles_boats_2.png	V	0	0	0	271.73492233688	271.934891665587
70643	100	429	11	0	35	33	15	5	0	0	0	stim016_stimuli_original_vehicles_planes_4.png	F	0	0	0	272.134901466779	272.334905416472
70743	100	430	11	0	35	34	8	1	0	0	0	stim009_stimuli_original_vehicles_boats_1.png	B	0	0	0	272.534914242337	272.734915997833
70843	100	431	11	0	35	35	6	10	0	0	0	stim007_stimuli_original_animals_fish_3.png	Q	0	0	0	272.934923360823	273.134940720163
71872.25	100	432	12	1	26	0	1	1	0	0	0	stim002_stimuli_original_animals_birds_2.png	B	d	277.044411838986	0	277.05168930674	277.251694719307
71972.25	100	433	12	1	26	1	15	9	0	0	0	stim016_stimuli_original_vehicles_planes_4.png	L	0	0	0	277.451699888101	277.651700180722
72072.25	100	434	12	1	26	2	9	12	0	0	0	stim010_stimuli_original_vehicles_boats_2.png	T	0	0	0	277.851729974151	278.051713443827
72172.25	100	435	12	1	26	3	13	0	0	0	0	stim014_stimuli_original_vehicles_planes_2.png	A	0	0	0	278.251716418425	278.451721343212
72272.25	100	436	12	1	26	4	10	3	0	0	0	stim011_stimuli_original_vehicles_boats_3.png	D	0	0	0	278.651728706434	278.851736800745
72372.25	100	437	12	1	26	5	5	11	0	0	0	stim006_stimuli_original_animals_fish_2.png	R	0	0	0	279.051745382836	279.251749332529
72472.25	100	438	12	1	26	6	7	4	0	0	0	stim008_stimuli_original_animals_fish_4.png	E	0	0	0	279.451765960315	279.651764546288
72572.25	100	439	12	1	26	7	13	8	1	0	0	stim014_stimuli_original_vehicles_planes_2.png	K	0	0	0	279.851770202629	280.051775127649
72672.25	100	440	12	1	26	8	12	5	0	0	0	stim013_stimuli_original_vehicles_planes_1.png	F	0	0	0	280.251783222193	280.451784977457
72772.25	100	441	12	1	26	9	13	2	1	0	0	stim014_stimuli_original_vehicles_planes_2.png	C	0	0	0	280.651793315774	280.851798484568
72872.25	100	442	12	1	26	10	8	6	0	0	0	stim009_stimuli_original_vehicles_boats_1.png	G	0	0	0	281.051804872463	281.251814673422
72972.25	100	443	12	1	26	11	11	12	0	1	0	stim012_stimuli_original_vehicles_boats_4.png	T	0	0	0	281.451819354668	281.651813308243
73072.25	100	444	12	1	26	12	14	7	0	0	0	stim015_stimuli_original_vehicles_planes_3.png	J	0	0	0	281.851812625537	282.0518202323
73172.25	100	445	12	1	26	13	3	12	0	1	1	stim004_stimuli_original_animals_birds_4.png	T	0	0	0	282.251823694445	282.451826425036
73272.25	100	446	12	1	26	14	0	14	0	0	0	stim001_stimuli_original_animals_birds_1.png	V	d	282.843608438037	1	282.651838420657	282.85184480832
73372.25	100	447	12	1	26	15	4	10	0	0	0	stim005_stimuli_original_animals_fish_1.png	Q	0	0	0	283.052278106567	283.251856121235
73472.25	100	448	12	1	26	16	2	15	0	0	0	stim003_stimuli_original_animals_birds_3.png	Y	0	0	0	283.451857876498	283.651865971042
73572.25	100	449	12	1	26	17	6	13	0	0	0	stim007_stimuli_original_animals_fish_3.png	U	0	0	0	283.851878453977	284.051880209474
73672.25	100	450	12	1	26	18	13	6	0	0	0	stim014_stimuli_original_vehicles_planes_2.png	G	0	0	0	284.251886353595	284.451885670889
73772.25	100	451	12	1	26	19	15	2	0	0	0	stim016_stimuli_original_vehicles_planes_4.png	C	0	0	0	284.651916927192	284.851903566392
73872.25	100	452	12	1	26	20	10	4	0	0	0	stim011_stimuli_original_vehicles_boats_3.png	E	0	0	0	285.051905565662	285.251907808706
73972.25	100	453	12	1	26	21	14	0	0	0	0	stim015_stimuli_original_vehicles_planes_3.png	A	0	0	0	285.451913952827	285.651936675888
74072.25	100	454	12	1	26	22	12	3	1	0	0	stim013_stimuli_original_vehicles_planes_1.png	D	0	0	0	285.851954278769	286.051958716242
74172.25	100	455	12	1	26	23	7	14	0	0	0	stim008_stimuli_original_animals_fish_4.png	V	0	0	0	286.251947793411	286.451969053596
74272.25	100	456	12	1	26	24	12	11	1	0	0	stim013_stimuli_original_vehicles_planes_1.png	R	0	0	0	286.651975685265	286.851979634957
74372.25	100	457	12	1	26	25	6	8	0	0	0	stim007_stimuli_original_animals_fish_3.png	K	0	0	0	287.051986022852	287.251971930731
74472.25	100	458	12	1	26	26	2	13	0	1	0	stim003_stimuli_original_animals_birds_3.png	U	0	0	0	287.451976855518	287.651979586342
74572.25	100	459	12	1	26	27	5	12	0	0	0	stim006_stimuli_original_animals_fish_2.png	T	0	0	0	287.851988655981	288.051988460822
74672.25	100	460	12	1	26	28	8	13	0	1	1	stim009_stimuli_original_vehicles_boats_1.png	U	0	0	0	288.251993629616	288.452440824825
74772.25	100	461	12	1	26	29	4	7	0	0	0	stim005_stimuli_original_animals_fish_1.png	J	0	0	0	288.652019327274	288.852017425466
74872.25	100	462	12	1	26	30	11	5	0	0	0	stim012_stimuli_original_vehicles_boats_4.png	F	d	289.044636631152	1	289.052023325581	289.252041172469
74972.25	100	463	12	1	26	31	3	10	0	0	0	stim004_stimuli_original_animals_birds_4.png	Q	0	0	0	289.452053411631	289.652054435806
75072.25	100	464	12	1	26	32	0	13	0	0	0	stim001_stimuli_original_animals_birds_1.png	U	0	0	0	289.852064480772	290.052067698911
75172.25	100	465	12	1	26	33	12	9	0	0	0	stim013_stimuli_original_vehicles_planes_1.png	L	0	0	0	290.25206896686	290.452076573623
75272.25	100	466	12	1	26	34	9	15	0	0	0	stim010_stimuli_original_vehicles_boats_2.png	Y	0	0	0	290.652082229964	290.852091299836
75372.25	100	467	12	1	26	35	1	1	0	0	0	stim002_stimuli_original_animals_birds_2.png	B	0	0	0	291.052075257059	291.252084082924
76601.5	100	468	13	0	30	0	7	4	0	0	0	stim008_stimuli_original_animals_fish_4.png	E	0	0	0	295.968863828341	296.168865340063
76701.5	100	469	13	0	30	1	2	11	0	0	0	stim003_stimuli_original_animals_birds_3.png	R	0	0	0	296.368893183069	296.568902252708
76801.5	100	470	13	0	30	2	0	10	0	0	0	stim001_stimuli_original_animals_birds_1.png	Q	0	0	0	296.768907421501	296.968888696982
76901.5	100	471	13	0	30	3	4	2	0	0	0	stim005_stimuli_original_animals_fish_1.png	C	0	0	0	297.168886307627	297.368895621272
77001.5	100	472	13	0	30	4	15	1	0	0	0	stim016_stimuli_original_vehicles_planes_4.png	B	0	0	0	297.568908835761	297.769306293922
77101.5	100	473	13	0	30	5	11	8	0	0	0	stim012_stimuli_original_vehicles_boats_4.png	K	0	0	0	297.968916247366	298.16892190394
77201.5	100	474	13	0	30	6	10	9	0	0	0	stim011_stimuli_original_vehicles_boats_3.png	L	0	0	0	298.368922927883	298.568926633801
77301.5	100	475	13	0	30	7	5	13	0	0	0	stim006_stimuli_original_animals_fish_2.png	U	0	0	0	298.768934484338	298.968938434031
77401.5	100	476	13	0	30	8	14	14	0	0	0	stim015_stimuli_original_vehicles_planes_3.png	V	0	0	0	299.168947503902	299.368952428689
77501.5	100	477	13	0	30	9	12	0	0	0	0	stim013_stimuli_original_vehicles_planes_1.png	A	0	0	0	299.568948332686	299.768982758746
77601.5	100	478	13	0	30	10	5	3	1	0	0	stim006_stimuli_original_animals_fish_2.png	D	0	0	0	299.968993778806	300.168993340107
77701.5	100	479	13	0	30	11	6	15	0	0	0	stim007_stimuli_original_animals_fish_3.png	Y	0	0	0	300.369008261245	300.568979052827
77801.5	100	480	13	0	30	12	5	2	1	1	1	stim006_stimuli_original_animals_fish_2.png	C	0	0	0	300.768988610012	300.968998167431
77901.5	100	481	13	0	30	13	1	6	0	0	0	stim002_stimuli_original_animals_birds_2.png	G	d	301.360773109831	1	301.169005286647	301.369026059285
78001.5	100	482	13	0	30	14	8	2	0	1	0	stim009_stimuli_original_vehicles_boats_1.png	C	0	0	0	301.569044637494	301.769038347295
78101.5	100	483	13	0	30	15	9	5	0	0	0	stim010_stimuli_original_vehicles_boats_2.png	F	0	0	0	301.969046441605	302.169020646717
78201.5	100	484	13	0	30	16	13	7	0	0	0	stim014_stimuli_original_vehicles_planes_2.png	J	0	0	0	302.369030691683	302.569039517548
78301.5	100	485	13	0	30	17	3	12	0	0	0	stim004_stimuli_original_animals_birds_4.png	T	0	0	0	302.769042248139	302.969256849261
78401.5	100	486	13	0	30	18	12	3	0	0	0	stim013_stimuli_original_vehicles_planes_1.png	D	0	0	0	303.169077941915	303.369062630692
78501.5	100	487	13	0	30	19	7	13	0	0	0	stim008_stimuli_original_animals_fish_4.png	U	0	0	0	303.569054389838	303.769059802406
78601.5	100	488	13	0	30	20	5	9	0	0	0	stim006_stimuli_original_animals_fish_2.png	L	0	0	0	303.969069847371	304.169075016165
78701.5	100	489	13	0	30	21	2	8	1	0	0	stim003_stimuli_original_animals_birds_3.png	K	0	0	0	304.36908432981	304.5690858413
78801.5	100	490	13	0	30	22	6	1	0	0	0	stim007_stimuli_original_animals_fish_3.png	B	0	0	0	304.769092229195	304.969095935114
78901.5	100	491	13	0	30	23	2	5	1	1	1	stim003_stimuli_original_animals_birds_3.png	F	0	0	0	305.169104029424	305.369105541147
79001.5	100	492	13	0	30	24	15	6	0	0	0	stim016_stimuli_original_vehicles_planes_4.png	G	0	0	0	305.569115829887	305.769125143299
79101.5	100	493	13	0	30	25	3	5	0	1	0	stim004_stimuli_original_animals_birds_4.png	F	d	305.961706314934	1	305.969132506521	306.169133530464
79201.5	100	494	13	0	30	26	0	12	0	0	0	stim001_stimuli_original_animals_birds_1.png	T	0	0	0	306.36914064968	306.569138016552
79301.5	100	495	13	0	30	27	14	14	0	0	0	stim015_stimuli_original_vehicles_planes_3.png	V	0	0	0	306.769146598643	306.969150792109
79401.5	100	496	13	0	30	28	13	5	0	0	0	stim014_stimuli_original_vehicles_planes_2.png	F	0	0	0	307.169155717129	307.36916673719
79501.5	100	497	13	0	30	29	9	10	0	0	0	stim010_stimuli_original_vehicles_boats_2.png	Q	0	0	0	307.569168248912	307.769172930159
79601.5	100	498	13	0	30	30	8	11	0	0	0	stim009_stimuli_original_vehicles_boats_1.png	R	0	0	0	307.969178830273	308.169181804638
79701.5	100	499	13	0	30	31	1	15	0	0	0	stim002_stimuli_original_animals_birds_2.png	Y	0	0	0	308.369195750682	308.569186778506
79801.5	100	500	13	0	30	32	2	4	0	0	0	stim003_stimuli_original_animals_birds_3.png	E	0	0	0	308.769193653949	308.969203211134
79901.5	100	501	13	0	30	33	10	0	0	0	0	stim011_stimuli_original_vehicles_boats_3.png	A	0	0	0	309.169211549452	309.369211842073
80001.5	100	502	13	0	30	34	11	2	0	0	0	stim012_stimuli_original_vehicles_boats_4.png	C	0	0	0	309.569220667938	309.769221935654
80101.5	100	503	13	0	30	35	4	7	0	0	0	stim005_stimuli_original_animals_fish_1.png	J	0	0	0	309.969232955948	310.169229835272
81568.25	100	504	14	1	43	0	2	7	0	0	0	stim003_stimuli_original_animals_birds_3.png	J	0	0	0	315.836055709282	316.036052588606
81668.25	100	505	14	1	43	1	0	8	0	0	0	stim001_stimuli_original_animals_birds_1.png	K	0	0	0	316.236059707822	316.436059269123
81768.25	100	506	14	1	43	2	15	15	0	0	0	stim016_stimuli_original_vehicles_planes_4.png	Y	0	0	0	316.636069070082	316.836081309477
81868.25	100	507	14	1	43	3	1	9	0	0	0	stim002_stimuli_original_animals_birds_2.png	L	0	0	0	317.036086234264	317.236095547909
81968.25	100	508	14	1	43	4	6	4	0	0	0	stim007_stimuli_original_animals_fish_3.png	E	0	0	0	317.436093646102	317.636099302443
82068.25	100	509	14	1	43	5	11	6	0	0	0	stim012_stimuli_original_vehicles_boats_4.png	G	0	0	0	317.836101057939	318.036105739186
82168.25	100	510	14	1	43	6	4	10	1	0	0	stim005_stimuli_original_animals_fish_1.png	Q	0	0	0	318.236124317395	318.436334042344
82268.25	100	511	14	1	43	7	12	0	0	0	0	stim013_stimuli_original_vehicles_planes_1.png	A	0	0	0	318.636122951983	318.836132753175
82368.25	100	512	14	1	43	8	4	1	1	0	0	stim005_stimuli_original_animals_fish_1.png	B	0	0	0	319.036143773468	319.236134557286
82468.25	100	513	14	1	43	9	9	4	0	1	0	stim010_stimuli_original_vehicles_boats_2.png	E	0	0	0	319.436146796681	319.636153428117
82568.25	100	514	14	1	43	10	8	14	0	0	0	stim009_stimuli_original_vehicles_boats_1.png	V	0	0	0	319.836157378042	320.036168398103
82668.25	100	515	14	1	43	11	3	4	0	1	1	stim004_stimuli_original_animals_birds_4.png	E	0	0	0	320.236169422045	320.436201166129
82768.25	100	516	14	1	43	12	13	13	0	0	0	stim014_stimuli_original_vehicles_planes_2.png	U	0	0	0	320.63622462051	320.836189073045
82868.25	100	517	14	1	43	13	10	5	0	0	0	stim011_stimuli_original_vehicles_boats_3.png	F	0	0	0	321.036204725737	321.236203067703
82968.25	100	518	14	1	43	14	4	3	0	0	0	stim005_stimuli_original_animals_fish_1.png	D	0	0	0	321.436212868895	321.636208529118
83068.25	100	519	14	1	43	15	5	2	0	0	0	stim006_stimuli_original_animals_fish_2.png	C	0	0	0	321.836221012287	322.036225937074
83168.25	100	520	14	1	43	16	7	12	0	0	0	stim008_stimuli_original_animals_fish_4.png	T	0	0	0	322.236227448797	322.436238468857
83268.25	100	521	14	1	43	17	14	11	0	0	0	stim015_stimuli_original_vehicles_planes_3.png	R	0	0	0	322.636241199682	322.836242954945
83368.25	100	522	14	1	43	18	11	14	0	0	0	stim012_stimuli_original_vehicles_boats_4.png	V	0	0	0	323.036252512364	323.236249147914
83468.25	100	523	14	1	43	19	12	7	0	0	0	stim013_stimuli_original_vehicles_planes_1.png	J	0	0	0	323.436261874624	323.636266312096
83568.25	100	524	14	1	43	20	2	5	0	0	0	stim003_stimuli_original_animals_birds_3.png	F	0	0	0	323.836275137961	324.036276405677
83668.25	100	525	14	1	43	21	3	4	0	0	0	stim004_stimuli_original_animals_birds_4.png	E	0	0	0	324.236285719322	324.436291619437
83768.25	100	526	14	1	43	22	5	10	0	0	0	stim006_stimuli_original_animals_fish_2.png	Q	0	0	0	324.636297032004	324.836299762595
83868.25	100	527	14	1	43	23	13	13	0	0	0	stim014_stimuli_original_vehicles_planes_2.png	U	0	0	0	325.03630907624	325.236306443112
83968.25	100	528	14	1	43	24	4	3	1	0	0	stim005_stimuli_original_animals_fish_1.png	D	0	0	0	325.436312343227	325.636317268247
84068.25	100	529	14	1	43	25	14	8	0	0	0	stim015_stimuli_original_vehicles_planes_3.png	K	0	0	0	325.836329751182	326.036329068476
84168.25	100	530	14	1	43	26	4	9	1	0	0	stim005_stimuli_original_animals_fish_1.png	L	0	0	0	326.236350816442	326.436339649837
84268.25	100	531	14	1	43	27	1	4	0	1	0	stim002_stimuli_original_animals_birds_2.png	E	0	0	0	326.63634359953	326.836348768324
84368.25	100	532	14	1	43	28	0	12	0	0	0	stim001_stimuli_original_animals_birds_1.png	T	0	0	0	327.03636247036	327.236359349685
84468.25	100	533	14	1	43	29	10	4	0	1	1	stim011_stimuli_original_vehicles_boats_3.png	E	0	0	0	327.436366468901	327.636380902492
84568.25	100	534	14	1	43	30	6	11	0	0	0	stim007_stimuli_original_animals_fish_3.png	R	0	0	0	327.836377050262	328.036385388579
84668.25	100	535	14	1	43	31	4	6	0	0	0	stim005_stimuli_original_animals_fish_1.png	G	d	328.229001424741	1	328.236391776241	328.436395725934
84768.25	100	536	14	1	43	32	9	1	0	0	0	stim010_stimuli_original_vehicles_boats_2.png	B	0	0	0	328.636425275821	328.836426299764
84868.25	100	537	14	1	43	33	15	15	0	0	0	stim016_stimuli_original_vehicles_planes_4.png	Y	0	0	0	329.036672352115	329.236415425781
84968.25	100	538	14	1	43	34	8	0	0	0	0	stim009_stimuli_original_vehicles_boats_1.png	A	0	0	0	329.436421569902	329.63642113097
85068.25	100	539	14	1	43	35	7	2	0	0	0	stim008_stimuli_original_animals_fish_4.png	C	0	0	0	329.836429956835	330.036430737004
86664.25	100	540	15	0	14	0	1	3	0	0	0	stim002_stimuli_original_animals_birds_2.png	D	0	0	0	336.219925618498	336.419925667346
86764.25	100	541	15	0	14	1	14	12	0	0	0	stim015_stimuli_original_vehicles_planes_3.png	T	0	0	0	336.619935956085	336.819946976146
86864.25	100	542	15	0	14	2	3	15	0	0	0	stim004_stimuli_original_animals_birds_4.png	Y	0	0	0	337.019956777338	337.219961946132
86964.25	100	543	15	0	14	3	11	0	0	0	0	stim012_stimuli_original_vehicles_boats_4.png	A	0	0	0	337.419968821574	337.619972283719
87064.25	100	544	15	0	14	4	15	11	0	0	0	stim016_stimuli_original_vehicles_planes_4.png	R	0	0	0	337.819984035334	338.019978232682
87164.25	100	545	15	0	14	5	0	9	0	0	0	stim001_stimuli_original_animals_birds_1.png	L	0	0	0	338.219993641367	338.419988814043
87264.25	100	546	15	0	14	6	5	3	0	1	0	stim006_stimuli_original_animals_fish_2.png	D	0	0	0	338.619995201705	338.82002523914
87364.25	100	547	15	0	14	7	10	7	0	0	0	stim011_stimuli_original_vehicles_boats_3.png	J	0	0	0	339.020031139255	339.220085070003
87464.25	100	548	15	0	14	8	14	3	1	1	0	stim015_stimuli_original_vehicles_planes_3.png	D	0	0	0	339.420041720616	339.62004396366
87564.25	100	549	15	0	14	9	2	4	0	0	0	stim003_stimuli_original_animals_birds_3.png	E	0	0	0	339.82051895326	340.020037478302
87664.25	100	550	15	0	14	10	14	14	1	0	1	stim015_stimuli_original_vehicles_planes_3.png	V	0	0	0	340.220047767041	340.420043671038
87764.25	100	551	15	0	14	11	13	8	0	0	0	stim014_stimuli_original_vehicles_planes_2.png	K	d	340.811828609789	1	340.620060298825	340.820056934375
87864.25	100	552	15	0	14	12	8	6	0	0	0	stim009_stimuli_original_vehicles_boats_1.png	G	0	0	0	341.020065028686	341.220068734605
87964.25	100	553	15	0	14	13	4	1	0	0	0	stim005_stimuli_original_animals_fish_1.png	B	0	0	0	341.420092432993	341.620096626459
88064.25	100	554	15	0	14	14	6	10	0	0	0	stim007_stimuli_original_animals_fish_3.png	Q	0	0	0	341.820104721002	342.020108426921
88164.25	100	555	15	0	14	15	12	13	0	0	0	stim013_stimuli_original_vehicles_planes_1.png	U	0	0	0	342.220102380263	342.420120714931
88264.25	100	556	15	0	14	16	7	2	0	0	0	stim008_stimuli_original_animals_fish_4.png	C	0	0	0	342.620124908397	342.820128614316
88364.25	100	557	15	0	14	17	9	5	0	0	0	stim010_stimuli_original_vehicles_boats_2.png	F	0	0	0	343.020120861242	343.220144071849
88464.25	100	558	15	0	14	18	5	9	0	0	0	stim006_stimuli_original_animals_fish_2.png	L	0	0	0	343.420129979495	343.620124176843
88564.25	100	559	15	0	14	19	2	7	0	0	0	stim003_stimuli_original_animals_birds_3.png	J	0	0	0	343.820138854207	344.020144023001
88664.25	100	560	15	0	14	20	13	12	0	0	0	stim014_stimuli_original_vehicles_planes_2.png	T	0	0	0	344.220145290717	344.42014680244
88764.25	100	561	15	0	14	21	10	6	0	0	0	stim011_stimuli_original_vehicles_boats_3.png	G	0	0	0	344.620161967352	344.8201561647
88864.25	100	562	15	0	14	22	1	4	0	0	0	stim002_stimuli_original_animals_birds_2.png	E	0	0	0	345.020388807636	345.220178692834
88964.25	100	563	15	0	14	23	6	8	0	0	0	stim007_stimuli_original_animals_fish_3.png	K	0	0	0	345.420173133956	345.620177327422
89064.25	100	564	15	0	14	24	8	13	0	0	0	stim009_stimuli_original_vehicles_boats_1.png	U	0	0	0	345.820186884608	346.020184495486
89164.25	100	565	15	0	14	25	14	14	0	1	0	stim015_stimuli_original_vehicles_planes_3.png	V	0	0	0	346.220202829922	346.420198490145
89264.25	100	566	15	0	14	26	4	2	0	0	0	stim005_stimuli_original_animals_fish_1.png	C	0	0	0	346.620212192181	346.820219555171
89364.25	100	567	15	0	14	27	3	14	1	1	0	stim004_stimuli_original_animals_birds_4.png	V	0	0	0	347.020247154403	347.220221115509
89464.25	100	568	15	0	14	28	7	10	0	0	0	stim008_stimuli_original_animals_fish_4.png	Q	0	0	0	347.420248227194	347.62023462262
89564.25	100	569	15	0	14	29	3	5	1	0	1	stim004_stimuli_original_animals_birds_4.png	F	0	0	0	347.820228088414	348.020233257208
89664.25	100	570	15	0	14	30	9	0	0	0	0	stim010_stimuli_original_vehicles_boats_2.png	A	0	0	0	348.220243545948	348.420239937725
89764.25	100	571	15	0	14	31	11	15	0	0	0	stim012_stimuli_original_vehicles_boats_4.png	Y	0	0	0	348.620281190146	348.820266122697
89864.25	100	572	15	0	14	32	0	11	0	0	0	stim001_stimuli_original_animals_birds_1.png	R	0	0	0	349.020286651561	349.220274509862
89964.25	100	573	15	0	14	33	15	3	0	0	0	stim016_stimuli_original_vehicles_planes_4.png	D	0	0	0	349.420274802484	349.620274851099
90064.25	100	574	15	0	14	34	12	14	0	0	0	stim013_stimuli_original_vehicles_planes_1.png	V	0	0	0	349.820281482767	350.02028543246
90164.25	100	575	15	0	14	35	3	1	0	0	0	stim004_stimuli_original_animals_birds_4.png	B	0	0	0	350.220294014551	350.42071390315
91051.75	100	576	16	1	23	0	5	9	0	0	0	stim006_stimuli_original_animals_fish_2.png	L	0	0	0	353.770403923932	353.970402022125
91151.75	100	577	16	1	23	1	8	13	0	0	0	stim009_stimuli_original_vehicles_boats_1.png	U	0	0	0	354.17040841002	354.37041284726
91251.75	100	578	16	1	23	2	11	1	0	0	0	stim012_stimuli_original_vehicles_boats_4.png	B	0	0	0	354.570418747608	354.770426354371
91351.75	100	579	16	1	23	3	0	0	0	0	0	stim001_stimuli_original_animals_birds_1.png	A	0	0	0	354.970430304063	355.170433766209
91451.75	100	580	16	1	23	4	2	14	0	0	0	stim003_stimuli_original_animals_birds_3.png	V	0	0	0	355.370441616746	355.570438983617
91551.75	100	581	16	1	23	5	9	5	0	0	0	stim010_stimuli_original_vehicles_boats_2.png	F	0	0	0	355.770455123857	355.970452978276
91651.75	100	582	16	1	23	6	10	3	0	0	0	stim011_stimuli_original_vehicles_boats_3.png	D	0	0	0	356.170463267015	356.370458927238
91751.75	100	583	16	1	23	7	8	8	1	1	0	stim009_stimuli_original_vehicles_boats_1.png	K	0	0	0	356.570461658062	356.770462925779
91851.75	100	584	16	1	23	8	3	10	0	0	0	stim004_stimuli_original_animals_birds_4.png	Q	0	0	0	356.970506372629	357.170496425126
91951.75	100	585	16	1	23	9	8	8	1	1	1	stim009_stimuli_original_vehicles_boats_1.png	K	0	0	0	357.370481845457	357.570484576048
92051.75	100	586	16	1	23	10	6	11	0	0	0	stim007_stimuli_original_animals_fish_3.png	R	0	0	0	357.770491451491	357.970495888731
92151.75	100	587	16	1	23	11	4	4	0	0	0	stim005_stimuli_original_animals_fish_1.png	E	0	0	0	358.170501301298	358.370939963264
92251.75	100	588	16	1	23	12	12	6	0	0	0	stim013_stimuli_original_vehicles_planes_1.png	G	0	0	0	358.570517246611	358.770517782774
92351.75	100	589	16	1	23	13	15	7	0	0	0	stim016_stimuli_original_vehicles_planes_4.png	J	0	0	0	358.970526608871	359.170529583236
92451.75	100	590	16	1	23	14	7	15	0	0	0	stim008_stimuli_original_animals_fish_4.png	Y	0	0	0	359.370545967249	359.570535288425
92551.75	100	591	16	1	23	15	14	8	0	0	0	stim015_stimuli_original_vehicles_planes_3.png	K	0	0	0	359.770548990462	359.970548063982
92651.75	100	592	16	1	23	16	1	12	0	0	0	stim002_stimuli_original_animals_birds_2.png	T	0	0	0	360.170560303144	360.370592047228
92751.75	100	593	16	1	23	17	13	2	0	0	0	stim014_stimuli_original_vehicles_planes_2.png	C	0	0	0	360.570580149302	360.77058263612
92851.75	100	594	16	1	23	18	2	13	0	0	0	stim003_stimuli_original_animals_birds_3.png	U	0	0	0	360.970627789618	361.170595899457
92951.75	100	595	16	1	23	19	12	1	0	0	0	stim013_stimuli_original_vehicles_planes_1.png	B	0	0	0	361.370600092923	361.570595021825
93051.75	100	596	16	1	23	20	8	14	0	0	0	stim009_stimuli_original_vehicles_boats_1.png	V	0	0	0	361.77060677344	361.970608041156
93151.75	100	597	16	1	23	21	15	7	0	0	0	stim016_stimuli_original_vehicles_planes_4.png	J	0	0	0	362.170615404146	362.370631056838
93251.75	100	598	16	1	23	22	7	15	0	0	0	stim008_stimuli_original_animals_fish_4.png	Y	0	0	0	362.570629886352	362.770632617176
93351.75	100	599	16	1	23	23	6	12	0	0	0	stim007_stimuli_original_animals_fish_3.png	T	0	0	0	362.970639492618	363.17066660407
93451.75	100	600	16	1	23	24	4	4	0	0	0	stim005_stimuli_original_animals_fish_1.png	E	0	0	0	363.3706566568	363.570674503688
93551.75	100	601	16	1	23	25	11	6	0	0	0	stim012_stimuli_original_vehicles_boats_4.png	G	0	0	0	363.770671382779	363.970661923056
93651.75	100	602	16	1	23	26	8	8	1	1	0	stim009_stimuli_original_vehicles_boats_1.png	K	0	0	0	364.170674405992	364.370688108262
93751.75	100	603	16	1	23	27	10	3	0	0	0	stim011_stimuli_original_vehicles_boats_3.png	D	0	0	0	364.570682793157	364.770685036201
93851.75	100	604	16	1	23	28	8	8	1	1	1	stim009_stimuli_original_vehicles_boats_1.png	K	0	0	0	364.970693130745	365.17069610511
93951.75	100	605	16	1	23	29	3	10	0	0	0	stim004_stimuli_original_animals_birds_4.png	Q	0	0	0	365.370727361413	365.570712781744
94051.75	100	606	16	1	23	30	5	9	0	0	0	stim006_stimuli_original_animals_fish_2.png	L	d	365.763318090234	1	365.770718438085	365.970739942044
94151.75	100	607	16	1	23	31	14	2	0	0	0	stim015_stimuli_original_vehicles_planes_3.png	C	0	0	0	366.170749011682	366.370732969139
94251.75	100	608	16	1	23	32	0	0	0	0	0	stim001_stimuli_original_animals_birds_1.png	A	0	0	0	366.570740088355	366.770739893196
94351.75	100	609	16	1	23	33	1	11	0	0	0	stim002_stimuli_original_animals_birds_2.png	R	0	0	0	366.970746524865	367.170750230784
94451.75	100	610	16	1	23	34	13	8	0	0	0	stim014_stimuli_original_vehicles_planes_2.png	K	0	0	0	367.370762713952	367.570775440661
94551.75	100	611	16	1	23	35	9	5	0	0	0	stim010_stimuli_original_vehicles_boats_2.png	F	0	0	0	367.770762323635	367.970764322905
95618.5	100	612	17	0	0	0	14	14	0	0	0	stim015_stimuli_original_vehicles_planes_3.png	V	0	0	0	372.03755104146	372.237553772051
95718.5	100	613	17	0	0	1	4	13	0	0	0	stim005_stimuli_original_animals_fish_1.png	U	0	0	0	372.437570643611	372.637564840959
95818.5	100	614	17	0	0	2	0	4	0	0	0	stim001_stimuli_original_animals_birds_1.png	E	0	0	0	372.837577324128	373.037574690999
95918.5	100	615	17	0	0	3	13	10	0	0	0	stim014_stimuli_original_vehicles_planes_2.png	Q	0	0	0	373.237584979739	373.437587954104
96018.5	100	616	17	0	0	4	12	0	0	0	0	stim013_stimuli_original_vehicles_planes_1.png	A	0	0	0	373.637596048648	373.83759414684
96118.5	100	617	17	0	0	5	3	14	0	1	0	stim004_stimuli_original_animals_birds_4.png	V	0	0	0	374.037600290962	374.237606191076
96218.5	100	618	17	0	0	6	6	5	0	0	0	stim007_stimuli_original_animals_fish_3.png	F	0	0	0	374.437612822745	374.637612871593
96318.5	100	619	17	0	0	7	15	14	0	1	0	stim016_stimuli_original_vehicles_planes_4.png	V	0	0	0	374.837639251724	375.0376285729
96418.5	100	620	17	0	0	8	9	6	0	0	0	stim010_stimuli_original_vehicles_boats_2.png	G	0	0	0	375.237638130086	375.437634521862
96518.5	100	621	17	0	0	9	11	1	0	0	0	stim012_stimuli_original_vehicles_boats_4.png	B	0	0	0	375.63768138201	375.837671190733
96618.5	100	622	17	0	0	10	5	11	1	0	0	stim006_stimuli_original_animals_fish_2.png	R	0	0	0	376.037662218558	376.237703714985
96718.5	100	623	17	0	0	11	1	12	0	0	0	stim002_stimuli_original_animals_birds_2.png	T	0	0	0	376.437674018787	376.63767553051
96818.5	100	624	17	0	0	12	5	2	1	0	1	stim006_stimuli_original_animals_fish_2.png	C	0	0	0	376.837702154415	377.03770269081
96918.5	100	625	17	0	0	13	7	8	0	0	0	stim008_stimuli_original_animals_fish_4.png	K	0	0	0	377.237694206415	377.437713759951
97018.5	100	626	17	0	0	14	10	7	0	0	0	stim011_stimuli_original_vehicles_boats_3.png	J	0	0	0	377.637975903694	377.837713613641
97118.5	100	627	17	0	0	15	2	9	0	0	0	stim003_stimuli_original_animals_birds_3.png	L	0	0	0	378.037715612678	378.237700545462
97218.5	100	628	17	0	0	16	8	3	0	0	0	stim009_stimuli_original_vehicles_boats_1.png	D	0	0	0	378.437706933124	378.637714296114
97318.5	100	629	17	0	0	17	5	15	0	0	0	stim006_stimuli_original_animals_fish_2.png	Y	0	0	0	378.83771897736	379.037742919521
97418.5	100	630	17	0	0	18	15	5	0	0	0	stim016_stimuli_original_vehicles_planes_4.png	F	0	0	0	379.237726389198	379.43773033889
97518.5	100	631	17	0	0	19	3	8	0	0	0	stim004_stimuli_original_animals_birds_4.png	K	0	0	0	379.637741846731	379.837743358221
97618.5	100	632	17	0	0	20	9	2	0	0	0	stim010_stimuli_original_vehicles_boats_2.png	C	0	0	0	380.037750965217	380.237750282511
97718.5	100	633	17	0	0	21	7	10	0	0	0	stim008_stimuli_original_animals_fish_4.png	Q	0	0	0	380.437759108376	380.637765496271
97818.5	100	634	17	0	0	22	8	7	0	0	0	stim009_stimuli_original_vehicles_boats_1.png	J	0	0	0	380.837771396386	381.037808991736
97918.5	100	635	17	0	0	23	2	5	0	1	0	stim003_stimuli_original_animals_birds_3.png	F	0	0	0	381.237817086279	381.437814940698
98018.5	100	636	17	0	0	24	12	1	0	0	0	stim013_stimuli_original_vehicles_planes_1.png	B	0	0	0	381.637828886742	381.837824302958
98118.5	100	637	17	0	0	25	11	5	0	1	0	stim012_stimuli_original_vehicles_boats_4.png	F	0	0	0	382.037838980323	382.237835859647
98218.5	100	638	17	0	0	26	1	11	0	0	0	stim002_stimuli_original_animals_birds_2.png	R	0	0	0	382.437845173059	382.637849610532
98318.5	100	639	17	0	0	27	6	9	0	0	0	stim007_stimuli_original_animals_fish_3.png	L	0	0	0	382.837853560224	383.038313189754
98418.5	100	640	17	0	0	28	14	15	1	0	0	stim015_stimuli_original_vehicles_planes_3.png	Y	0	0	0	383.237838297617	383.437841028441
98518.5	100	641	17	0	0	29	5	6	0	0	0	stim006_stimuli_original_animals_fish_2.png	G	0	0	0	383.637849122752	383.837846489623
98618.5	100	642	17	0	0	30	14	3	1	0	1	stim015_stimuli_original_vehicles_planes_3.png	D	0	0	0	384.037856290815	384.237857314758
98718.5	100	643	17	0	0	31	0	12	0	0	0	stim001_stimuli_original_animals_birds_1.png	T	d	384.430428733816	1	384.437864433974	384.637867408572
98818.5	100	644	17	0	0	32	10	13	0	0	0	stim011_stimuli_original_vehicles_boats_3.png	U	0	0	0	384.837878184859	385.037882622331
98918.5	100	645	17	0	0	33	4	0	0	0	0	stim005_stimuli_original_animals_fish_1.png	A	0	0	0	385.237889009994	385.437890277943
99018.5	100	646	17	0	0	34	13	4	0	0	0	stim014_stimuli_original_vehicles_planes_2.png	E	0	0	0	385.637897397159	385.837907929672
99118.5	100	647	17	0	0	35	14	14	0	0	0	stim015_stimuli_original_vehicles_planes_3.png	V	0	0	0	386.037915536435	386.23791241576
100077	100	648	18	1	12	0	13	10	0	0	0	stim014_stimuli_original_vehicles_planes_2.png	Q	0	0	0	389.87134931935	390.071368872887
100177	100	649	18	1	12	1	14	0	0	0	0	stim015_stimuli_original_vehicles_planes_3.png	A	0	0	0	390.271366239758	390.47136068088
100277	100	650	18	1	12	2	15	6	0	0	0	stim016_stimuli_original_vehicles_planes_4.png	G	0	0	0	390.67136804387	390.871370530687
100377	100	651	18	1	12	3	9	1	0	0	0	stim010_stimuli_original_vehicles_boats_2.png	B	0	0	0	391.071374724386	391.271823138697
100477	100	652	18	1	12	4	12	3	0	0	0	stim013_stimuli_original_vehicles_planes_1.png	D	0	0	0	391.471388475038	391.671388523886
100577	100	653	18	1	12	5	6	4	1	0	0	stim007_stimuli_original_animals_fish_3.png	E	0	0	0	391.871396374656	392.071398373693
100677	100	654	18	1	12	6	11	9	0	1	0	stim012_stimuli_original_vehicles_boats_4.png	L	0	0	0	392.271407199791	392.471407248406
100777	100	655	18	1	12	7	6	11	1	0	0	stim007_stimuli_original_animals_fish_3.png	R	0	0	0	392.67142192577	392.871421730844
100877	100	656	18	1	12	8	0	9	0	1	1	stim001_stimuli_original_animals_birds_1.png	L	0	0	0	393.071463470813	393.271461325465
100977	100	657	18	1	12	9	2	2	0	0	0	stim003_stimuli_original_animals_birds_3.png	C	0	0	0	393.47143772454	393.67144021159
101077	100	658	18	1	12	10	1	7	0	0	0	stim002_stimuli_original_animals_birds_2.png	J	d	393.86398920021	1	393.871462690644	394.071457619546
101177	100	659	18	1	12	11	5	13	0	0	0	stim006_stimuli_original_animals_fish_2.png	U	0	0	0	394.27147229691	394.471468200907
101277	100	660	18	1	12	12	8	15	0	0	0	stim009_stimuli_original_vehicles_boats_1.png	Y	0	0	0	394.671502626734	394.871507063974
101377	100	661	18	1	12	13	7	9	0	0	0	stim008_stimuli_original_animals_fish_4.png	L	0	0	0	395.071481756633	395.271522521507
101477	100	662	18	1	12	14	10	5	0	0	0	stim011_stimuli_original_vehicles_boats_3.png	F	0	0	0	395.47153305402	395.671493361937
101577	100	663	18	1	12	15	3	14	0	0	0	stim004_stimuli_original_animals_birds_4.png	V	0	0	0	395.871507551754	396.071507844143
101677	100	664	18	1	12	16	6	8	0	0	0	stim007_stimuli_original_animals_fish_3.png	K	0	0	0	396.271518132882	396.471522082807
101777	100	665	18	1	12	17	4	12	0	0	0	stim005_stimuli_original_animals_fish_1.png	T	0	0	0	396.671533346642	396.871532176388
101877	100	666	18	1	12	18	12	4	0	0	0	stim013_stimuli_original_vehicles_planes_1.png	E	0	0	0	397.071537588956	397.271542026429
101977	100	667	18	1	12	19	8	6	0	0	0	stim009_stimuli_original_vehicles_boats_1.png	G	0	0	0	397.471548657864	397.671553826658
102077	100	668	18	1	12	20	14	3	0	0	0	stim015_stimuli_original_vehicles_planes_3.png	D	0	0	0	397.871553143952	398.071558068972
102177	100	669	18	1	12	21	5	10	0	0	0	stim006_stimuli_original_animals_fish_2.png	Q	0	0	0	398.271566407289	398.471578890225
102277	100	670	18	1	12	22	9	7	0	0	0	stim010_stimuli_original_vehicles_boats_2.png	J	0	0	0	398.67157942662	398.871582888765
102377	100	671	18	1	12	23	15	8	0	0	0	stim016_stimuli_original_vehicles_planes_4.png	K	0	0	0	399.071590739535	399.271594933001
102477	100	672	18	1	12	24	13	5	0	0	0	stim014_stimuli_original_vehicles_planes_2.png	F	0	0	0	399.47160156467	399.671603807714
102577	100	673	18	1	12	25	7	1	0	0	0	stim008_stimuli_original_animals_fish_4.png	B	0	0	0	399.871607269626	400.071612682194
102677	100	674	18	1	12	26	2	2	0	0	0	stim003_stimuli_original_animals_birds_3.png	C	0	0	0	400.271617850987	400.471630334156
102777	100	675	18	1	12	27	9	0	1	0	0	stim010_stimuli_original_vehicles_boats_2.png	A	0	0	0	400.671681095148	400.871664565057
102877	100	676	18	1	12	28	11	6	0	1	0	stim012_stimuli_original_vehicles_boats_4.png	G	0	0	0	401.071649497608	401.271649546223
102977	100	677	18	1	12	29	9	11	1	0	0	stim010_stimuli_original_vehicles_boats_2.png	R	0	0	0	401.47165788454	401.671651106561
103077.25	100	678	18	1	12	30	4	6	0	1	1	stim005_stimuli_original_animals_fish_1.png	G	0	0	0	401.872128534364	402.071680461289
103177	100	679	18	1	12	31	3	12	0	0	0	stim004_stimuli_original_animals_birds_4.png	T	d	402.277364439331	1	402.271680997685	402.471711522667
103277	100	680	18	1	12	32	1	9	0	0	0	stim002_stimuli_original_animals_birds_2.png	L	0	0	0	402.671710352413	402.871713083005
103377	100	681	18	1	12	33	6	15	0	0	0	stim007_stimuli_original_animals_fish_3.png	Y	0	0	0	403.07169533358	403.271701965248
103477	100	682	18	1	12	34	0	14	0	0	0	stim001_stimuli_original_animals_birds_1.png	V	0	0	0	403.471711035119	403.671707670437
103577	100	683	18	1	12	35	10	13	0	0	0	stim011_stimuli_original_vehicles_boats_3.png	U	0	0	0	403.871718690731	404.071714594727
104539.5	100	684	19	0	1	0	4	8	0	0	0	stim005_stimuli_original_animals_fish_1.png	K	0	0	0	407.721831720788	407.921828843653
104639.5	100	685	19	0	1	1	10	2	0	0	0	stim011_stimuli_original_vehicles_boats_3.png	C	0	0	0	408.12184595922	408.321865024976
104739.5	100	686	19	0	1	2	8	4	0	0	0	stim009_stimuli_original_vehicles_boats_1.png	E	0	0	0	408.521872144192	408.721847324399
104839.5	100	687	19	0	1	3	11	14	0	0	0	stim012_stimuli_original_vehicles_boats_4.png	V	0	0	0	408.921858588466	409.121856930666
104939.5	100	688	19	0	1	4	3	10	0	0	0	stim004_stimuli_original_animals_birds_4.png	Q	0	0	0	409.32186283078	409.52186726802
105039.5	100	689	19	0	1	5	12	0	0	0	0	stim013_stimuli_original_vehicles_planes_1.png	A	0	0	0	409.721875606338	409.921877361834
105139.75	100	690	19	0	1	6	13	7	0	0	0	stim014_stimuli_original_vehicles_planes_2.png	J	0	0	0	410.122307734331	410.321892819367
105239.5	100	691	19	0	1	7	9	1	0	0	0	stim010_stimuli_original_vehicles_boats_2.png	B	0	0	0	410.521894087084	410.721923392965
105339.5	100	692	19	0	1	8	15	6	0	0	0	stim016_stimuli_original_vehicles_planes_4.png	G	0	0	0	410.921931243734	411.121944701998
105439.5	100	693	19	0	1	9	8	9	1	0	0	stim009_stimuli_original_vehicles_boats_1.png	L	0	0	0	411.321926952573	411.521943824366
105539.5	100	694	19	0	1	10	7	3	0	1	0	stim008_stimuli_original_animals_fish_4.png	D	0	0	0	411.721954600653	411.921957575018
105639.5	100	695	19	0	1	11	8	13	1	0	1	stim009_stimuli_original_vehicles_boats_1.png	U	0	0	0	412.121946164872	412.32196693751
105739.5	100	696	19	0	1	12	0	3	0	1	0	stim001_stimuli_original_animals_birds_1.png	D	0	0	0	412.521954064257	412.721977762645
105839.5	100	697	19	0	1	13	6	5	0	0	0	stim007_stimuli_original_animals_fish_3.png	F	0	0	0	412.921969521791	413.121988831554
105939.5	100	698	19	0	1	14	1	15	0	0	0	stim002_stimuli_original_animals_birds_2.png	Y	0	0	0	413.321983272675	413.521980883321
106039.5	100	699	19	0	1	15	14	12	0	0	0	stim015_stimuli_original_vehicles_planes_3.png	T	0	0	0	413.721998486435	413.921992439777
106139.5	100	700	19	0	1	16	2	11	0	0	0	stim003_stimuli_original_animals_birds_3.png	R	0	0	0	414.122008336242	414.322020575404
106239.5	100	701	19	0	1	17	5	3	0	0	0	stim006_stimuli_original_animals_fish_2.png	D	0	0	0	414.52200989658	414.722012383398
106339.5	100	702	19	0	1	18	3	5	0	0	0	stim004_stimuli_original_animals_birds_4.png	F	0	0	0	414.922017552191	415.122021501884
106439.5	100	703	19	0	1	19	11	2	0	0	0	stim012_stimuli_original_vehicles_boats_4.png	C	0	0	0	415.322027158225	415.522290277528
106539.5	100	704	19	0	1	20	12	14	0	0	0	stim013_stimuli_original_vehicles_planes_1.png	V	0	0	0	415.72204749193	415.922042664606
106639.5	100	705	19	0	1	21	15	1	0	0	0	stim016_stimuli_original_vehicles_planes_4.png	B	0	0	0	416.122048077174	416.322051783092
106739.5	100	706	19	0	1	22	5	6	0	0	0	stim006_stimuli_original_animals_fish_2.png	G	0	0	0	416.522059146082	416.722060657805
106839.5	100	707	19	0	1	23	3	0	1	0	0	stim004_stimuli_original_animals_birds_4.png	A	0	0	0	416.922078016913	417.122074896237
106939.5	100	708	19	0	1	24	13	8	0	1	0	stim014_stimuli_original_vehicles_planes_2.png	K	0	0	0	417.322081284132	417.52207791945
107039.5	100	709	19	0	1	25	3	7	1	0	1	stim004_stimuli_original_animals_birds_4.png	J	0	0	0	417.722089183517	417.922088013263
107139.5	100	710	19	0	1	26	9	8	0	1	0	stim010_stimuli_original_vehicles_boats_2.png	K	0	0	0	418.122097326675	418.322100301273
107239.5	100	711	19	0	1	27	6	15	0	0	0	stim007_stimuli_original_animals_fish_3.png	Y	0	0	0	418.522107908037	418.722112345276
107339.5	100	712	19	0	1	28	1	9	0	0	0	stim002_stimuli_original_animals_birds_2.png	L	0	0	0	418.922113369452	419.122108298121
107439.75	100	713	19	0	1	29	7	13	0	0	0	stim008_stimuli_original_animals_fish_4.png	U	0	0	0	419.322127851658	419.522130582249
107539.75	100	714	19	0	1	30	0	12	0	0	0	stim001_stimuli_original_animals_birds_1.png	T	0	0	0	419.722142333863	419.922142138937
107639.75	100	715	19	0	1	31	10	3	0	0	0	stim011_stimuli_original_vehicles_boats_3.png	D	0	0	0	420.122149501927	420.322151744971
107739.75	100	716	19	0	1	32	14	11	0	0	0	stim015_stimuli_original_vehicles_planes_3.png	R	0	0	0	420.522186170798	420.722173785325
107839.75	100	717	19	0	1	33	4	8	0	0	0	stim005_stimuli_original_animals_fish_1.png	K	0	0	0	420.922177735018	421.122175345663
107939.75	100	718	19	0	1	34	2	10	0	0	0	stim003_stimuli_original_animals_birds_3.png	Q	0	0	0	421.322181733558	421.522183732828
108039.75	100	719	19	0	1	35	8	4	0	0	0	stim009_stimuli_original_vehicles_boats_1.png	E	0	0	0	421.722221084405	421.922207723605
109148	100	720	20	1	21	0	10	13	0	0	0	stim011_stimuli_original_vehicles_boats_3.png	U	0	0	0	426.155677687842	426.355681637535
109248	100	721	20	1	21	1	11	11	0	0	0	stim012_stimuli_original_vehicles_boats_4.png	R	0	0	0	426.555683636805	426.755687586498
109348	100	722	20	1	21	2	0	3	0	0	0	stim001_stimuli_original_animals_birds_1.png	D	0	0	0	426.955696168588	427.155697436305
109448	100	723	20	1	21	3	7	2	0	0	0	stim008_stimuli_original_animals_fish_4.png	C	0	0	0	427.355689683231	427.555708748987
109548	100	724	20	1	21	4	5	6	0	0	0	stim006_stimuli_original_animals_fish_2.png	G	0	0	0	427.755716843531	427.955719330348
109648	100	725	20	1	21	5	9	1	1	0	0	stim010_stimuli_original_vehicles_boats_2.png	B	0	0	0	428.155728156213	428.355750879273
109748	100	726	20	1	21	6	15	4	0	0	0	stim016_stimuli_original_vehicles_planes_4.png	E	0	0	0	428.555735080503	428.755731228273
109848	100	727	20	1	21	7	9	0	1	0	0	stim010_stimuli_original_vehicles_boats_2.png	A	0	0	0	428.955728838919	429.155729375314
109948	100	728	20	1	21	8	4	9	0	0	0	stim005_stimuli_original_animals_fish_1.png	L	0	0	0	429.35573942028	429.555760924239
110048	100	729	20	1	21	9	1	15	0	0	0	stim002_stimuli_original_animals_birds_2.png	Y	0	0	0	429.755762192188	429.955747612286
110148	100	730	20	1	21	10	12	14	0	0	0	stim013_stimuli_original_vehicles_planes_1.png	V	0	0	0	430.155758388573	430.355759900296
110248	100	731	20	1	21	11	13	12	0	0	0	stim014_stimuli_original_vehicles_planes_2.png	T	0	0	0	430.555764093762	430.755768287228
110348	100	732	20	1	21	12	9	4	0	1	0	stim010_stimuli_original_vehicles_boats_2.png	E	0	0	0	430.955776625546	431.155783013441
110448	100	733	20	1	21	13	8	10	0	0	0	stim009_stimuli_original_vehicles_boats_1.png	Q	0	0	0	431.355793789728	431.555790181505
110548	100	734	20	1	21	14	14	4	0	1	1	stim015_stimuli_original_vehicles_planes_3.png	E	0	0	0	431.755801201565	431.955800275085
110648	100	735	20	1	21	15	6	5	0	0	0	stim007_stimuli_original_animals_fish_3.png	F	d	432.347592284204	1	432.15582738677	432.35581938969
110748	100	736	20	1	21	16	3	8	0	0	0	stim004_stimuli_original_animals_birds_4.png	K	0	0	0	432.555819682311	432.755828752182
110848	100	737	20	1	21	17	2	7	0	0	0	stim003_stimuli_original_animals_birds_3.png	J	0	0	0	432.955835139845	433.155832506716
110948	100	738	20	1	21	18	7	2	0	0	0	stim008_stimuli_original_animals_fish_4.png	C	0	0	0	433.35584352701	433.555878684158
111048	100	739	20	1	21	19	8	3	0	0	0	stim009_stimuli_original_vehicles_boats_1.png	D	0	0	0	433.755855083466	433.955856107408
111148	100	740	20	1	21	20	5	6	0	0	0	stim006_stimuli_original_animals_fish_2.png	G	0	0	0	434.155870053452	434.355861081276
111248	100	741	20	1	21	21	4	14	1	0	0	stim005_stimuli_original_animals_fish_1.png	V	0	0	0	434.555876002414	434.755873369286
111348	100	742	20	1	21	22	10	8	0	0	0	stim011_stimuli_original_vehicles_boats_3.png	K	0	0	0	434.956099916948	435.155898579163
111448	100	743	20	1	21	23	4	9	1	0	0	stim005_stimuli_original_animals_fish_1.png	L	0	0	0	435.355899603106	435.555900627049
111548	100	744	20	1	21	24	12	13	0	0	0	stim013_stimuli_original_vehicles_planes_1.png	U	0	0	0	435.755907990038	435.955911939731
111648	100	745	20	1	21	25	14	12	0	0	0	stim015_stimuli_original_vehicles_planes_3.png	T	0	0	0	436.155916377204	436.355921789771
111748	100	746	20	1	21	26	15	1	0	0	0	stim016_stimuli_original_vehicles_planes_4.png	B	0	0	0	436.555929640308	436.75592749496
111848	100	747	20	1	21	27	9	4	0	0	0	stim010_stimuli_original_vehicles_boats_2.png	E	0	0	0	436.955940953223	437.155941001838
111948	100	748	20	1	21	28	0	9	0	1	0	stim001_stimuli_original_animals_birds_1.png	L	0	0	0	437.355945926858	437.555949876551
112048	100	749	20	1	21	29	4	15	0	0	0	stim005_stimuli_original_animals_fish_1.png	Y	0	0	0	437.755954070017	437.955958507489
112148	100	750	20	1	21	30	1	9	0	1	1	stim002_stimuli_original_animals_birds_2.png	L	0	0	0	438.155966114253	438.355993225938
112248	100	751	20	1	21	31	6	5	0	0	0	stim007_stimuli_original_animals_fish_3.png	F	d	438.548655829625	1	438.555975720286	438.755971380509
112348	100	752	20	1	21	32	2	7	0	0	0	stim003_stimuli_original_animals_birds_3.png	J	0	0	0	438.95598288835	439.155995371519
112448	100	753	20	1	21	33	3	0	0	0	0	stim004_stimuli_original_animals_birds_4.png	A	0	0	0	439.355992006836	439.555999126052
112548	100	754	20	1	21	34	11	11	0	0	0	stim012_stimuli_original_vehicles_boats_4.png	R	0	0	0	439.75600453862	439.956007025437
112648	100	755	20	1	21	35	13	10	0	0	0	stim014_stimuli_original_vehicles_planes_2.png	Q	0	0	0	440.15601390088	440.35643793433
114094	100	756	21	0	29	0	1	14	0	0	0	stim002_stimuli_original_animals_birds_2.png	V	0	0	0	445.939524044981	446.139531407971
114194	100	757	21	0	29	1	9	13	0	0	0	stim010_stimuli_original_vehicles_boats_2.png	U	0	0	0	446.339520241367	446.539513951167
114294	100	758	21	0	29	2	2	8	0	0	0	stim003_stimuli_original_animals_birds_3.png	K	0	0	0	446.739514731336	446.939534284873
114394	100	759	21	0	29	3	14	5	0	0	0	stim015_stimuli_original_vehicles_planes_3.png	F	0	0	0	447.139538966119	447.339540233836
114494	100	760	21	0	29	4	15	10	1	0	0	stim016_stimuli_original_vehicles_planes_4.png	Q	0	0	0	447.539551497903	447.73955642269
114594	100	761	21	0	29	5	12	4	0	0	0	stim013_stimuli_original_vehicles_planes_1.png	E	0	0	0	447.939562079264	448.139566760277
114694	100	762	21	0	29	6	15	9	1	0	1	stim016_stimuli_original_vehicles_planes_4.png	L	0	0	0	448.339566809125	448.539573928341
114794	100	763	21	0	29	7	4	6	0	1	0	stim005_stimuli_original_animals_fish_1.png	G	0	0	0	448.739585192408	448.939584265929
114894	100	764	21	0	29	8	5	15	0	0	0	stim006_stimuli_original_animals_fish_2.png	Y	0	0	0	449.139594798442	449.339592652861
114994	100	765	21	0	29	9	7	6	0	1	0	stim008_stimuli_original_animals_fish_4.png	G	0	0	0	449.539627566468	449.73963444191
115094	100	766	21	0	29	10	3	0	0	0	0	stim004_stimuli_original_animals_birds_4.png	A	0	0	0	449.939641561126	450.139628931647
115194	100	767	21	0	29	11	8	2	0	0	0	stim009_stimuli_original_vehicles_boats_1.png	C	0	0	0	450.339613620425	450.540042042499
115294	100	768	21	0	29	12	6	12	0	0	0	stim007_stimuli_original_animals_fish_3.png	T	0	0	0	450.739601771347	450.939628151478
115394	100	769	21	0	29	13	11	1	0	0	0	stim012_stimuli_original_vehicles_boats_4.png	B	0	0	0	451.139630394522	451.33963288134
115494	100	770	21	0	29	14	10	11	0	0	0	stim011_stimuli_original_vehicles_boats_3.png	R	0	0	0	451.539641951211	451.739667843794
115594	100	771	21	0	29	15	15	6	0	0	0	stim016_stimuli_original_vehicles_planes_4.png	G	0	0	0	451.939669111511	452.139658920234
115694	100	772	21	0	29	16	0	3	0	0	0	stim001_stimuli_original_animals_birds_1.png	D	0	0	0	452.339679692872	452.539676571963
115794	100	773	21	0	29	17	13	7	0	0	0	stim014_stimuli_original_vehicles_planes_2.png	J	0	0	0	452.739682959858	452.939686422003
115894	100	774	21	0	29	18	7	13	0	0	0	stim008_stimuli_original_animals_fish_4.png	U	0	0	0	453.139707194641	453.339705292834
115994	100	775	21	0	29	19	3	0	0	0	0	stim004_stimuli_original_animals_birds_4.png	A	0	0	0	453.539708998753	453.739713192219
116094	100	776	21	0	29	20	6	15	0	0	0	stim007_stimuli_original_animals_fish_3.png	Y	0	0	0	453.939721042989	454.139719628729
116194	100	777	21	0	29	21	11	10	0	0	0	stim012_stimuli_original_vehicles_boats_4.png	Q	0	0	0	454.339732599445	454.539746057708
116294	100	778	21	0	29	22	1	11	0	0	0	stim002_stimuli_original_animals_birds_2.png	R	0	0	0	454.73974708165	454.939744936302
116394	100	779	21	0	29	23	12	6	0	0	0	stim013_stimuli_original_vehicles_planes_1.png	G	0	0	0	455.139757419238	455.339750641491
116494	100	780	21	0	29	24	2	8	0	0	0	stim003_stimuli_original_animals_birds_3.png	K	0	0	0	455.539774339646	455.739813641645
116594	100	781	21	0	29	25	0	3	0	0	0	stim001_stimuli_original_animals_birds_1.png	D	0	0	0	455.939806132345	456.139764245832
116694	100	782	21	0	29	26	6	7	1	0	0	stim007_stimuli_original_animals_fish_3.png	J	0	0	0	456.339797696564	456.539806522429
116794	100	783	21	0	29	27	15	5	0	0	0	stim016_stimuli_original_vehicles_planes_4.png	F	d	456.732425484341	0	456.739800963551	456.93979930575
116894	100	784	21	0	29	28	6	4	1	0	1	stim007_stimuli_original_animals_fish_3.png	E	0	0	0	457.139811788686	457.339830123354
116994	100	785	21	0	29	29	9	15	0	1	0	stim010_stimuli_original_vehicles_boats_2.png	Y	0	0	0	457.539845532039	457.739841192262
117094	100	786	21	0	29	30	4	12	0	0	0	stim005_stimuli_original_animals_fish_1.png	T	0	0	0	457.939848067705	458.139853236498
117194	100	787	21	0	29	31	10	15	0	1	0	stim011_stimuli_original_vehicles_boats_3.png	Y	0	0	0	458.339843288995	458.539846994914
117294	100	788	21	0	29	32	5	14	0	0	0	stim006_stimuli_original_animals_fish_2.png	V	0	0	0	458.739894830389	458.939854650525
117394	100	789	21	0	29	33	8	2	0	0	0	stim009_stimuli_original_vehicles_boats_1.png	C	0	0	0	459.139859819319	459.339866938535
117494	100	790	21	0	29	34	13	9	0	0	0	stim014_stimuli_original_vehicles_planes_2.png	L	0	0	0	459.539870888228	459.739895317936
117594	100	791	21	0	29	35	14	1	0	0	0	stim015_stimuli_original_vehicles_planes_3.png	B	0	0	0	459.939884395339	460.139905899297
118415	100	792	22	1	4	0	6	10	0	0	0	stim007_stimuli_original_animals_fish_3.png	Q	0	0	0	463.223307255423	463.423328759382
118515	100	793	22	1	4	1	11	2	0	0	0	stim012_stimuli_original_vehicles_boats_4.png	C	0	0	0	463.623320274753	463.823320323601
118615	100	794	22	1	4	2	14	15	0	0	0	stim015_stimuli_original_vehicles_planes_3.png	Y	0	0	0	464.023318665568	464.223327735439
118715	100	795	22	1	4	3	12	12	0	0	0	stim013_stimuli_original_vehicles_planes_1.png	T	0	0	0	464.42333631753	464.623336853925
118815	100	796	22	1	4	4	9	6	0	0	0	stim010_stimuli_original_vehicles_boats_2.png	G	0	0	0	464.82334567979	465.023348410381
118915	100	797	22	1	4	5	7	5	0	0	0	stim008_stimuli_original_animals_fish_4.png	F	0	0	0	465.223357724026	465.423375326907
119015	100	798	22	1	4	6	8	7	0	0	0	stim009_stimuli_original_vehicles_boats_1.png	J	0	0	0	465.62338878517	465.823388346471
