onset	duration	eventnumber	sequencenumber	condition	streamnumber	stimnumber	objectstimnumber	letterstimnumber	objecttarget	lettertarget	is2back	objectstim	letterstim	response	rt	correct	time_stimon	time_stimoff
15347.5	100	0	0	1	2	0	2	10	0	0	0	stim003_stimuli_original_animals_birds_3.png	Q	0	0	0	50.8103299131617	51.0103287426755
15447.5	100	1	0	1	2	1	11	6	0	0	0	stim012_stimuli_original_vehicles_boats_4.png	G	0	0	0	51.2103336676955	51.4112067981623
15547.5	100	2	0	1	2	2	0	8	0	0	0	stim001_stimuli_original_animals_birds_1.png	K	0	0	0	51.6103147482499	51.8103435663506
15647.5	100	3	0	1	2	3	4	9	0	0	0	stim005_stimuli_original_animals_fish_1.png	L	0	0	0	52.0103514171205	52.2103560981341
15747.5	100	4	0	1	2	4	12	11	0	0	0	stim013_stimuli_original_vehicles_planes_1.png	R	0	0	0	52.4103488326073	52.6103415670805
15847.5	100	5	0	1	2	5	9	4	0	0	0	stim010_stimuli_original_vehicles_boats_2.png	E	0	0	0	52.8103423472494	53.01034532208
15947.5	100	6	0	1	2	6	5	7	0	1	0	stim006_stimuli_original_animals_fish_2.png	J	0	0	0	53.2103863307275	53.4103949125856
16047.5	100	7	0	1	2	7	7	2	0	0	0	stim008_stimuli_original_animals_fish_4.png	C	0	0	0	53.6103976434097	53.8103974484839
16147.5	100	8	0	1	2	8	3	7	0	1	1	stim004_stimuli_original_animals_birds_4.png	J	0	0	0	54.0104052992538	54.2104085171595
16247.5	100	9	0	1	2	9	12	1	1	0	0	stim013_stimuli_original_vehicles_planes_1.png	B	0	0	0	54.4104224634357	54.6104190987535
16347.5	100	10	0	1	2	10	6	0	0	0	0	stim007_stimuli_original_animals_fish_3.png	A	f	54.8031984870322	1	54.8104108576663	55.0104135884903
16447.5	100	11	0	1	2	11	12	3	1	0	0	stim013_stimuli_original_vehicles_planes_1.png	D	0	0	0	55.210440212395	55.4104451374151
16547.5	100	12	0	1	2	12	14	15	0	0	0	stim015_stimuli_original_vehicles_planes_3.png	Y	0	0	0	55.6104503064416	55.8104369454086
16647.5	100	13	0	1	2	13	13	7	0	0	0	stim014_stimuli_original_vehicles_planes_2.png	J	0	0	0	56.0104584493674	56.2104631308466
16747.5	100	14	0	1	2	14	10	13	0	0	0	stim011_stimuli_original_vehicles_boats_3.png	U	0	0	0	56.4104534271173	56.610443723388
16847.5	100	15	0	1	2	15	1	12	0	0	0	stim002_stimuli_original_animals_birds_2.png	T	0	0	0	56.8104544999078	57.0104838055559
16947.5	100	16	0	1	2	16	15	5	0	0	0	stim016_stimuli_original_vehicles_planes_4.png	F	0	0	0	57.2104748333804	57.4104958497919
17047.5	100	17	0	1	2	17	8	14	0	0	0	stim009_stimuli_original_vehicles_boats_1.png	V	0	0	0	57.6104807825759	57.8104776619002
17147.5	100	18	0	1	2	18	14	8	0	0	0	stim015_stimuli_original_vehicles_planes_3.png	K	0	0	0	58.0104864877649	58.210487999022
17247.5	100	19	0	1	2	19	5	15	0	0	0	stim006_stimuli_original_animals_fish_2.png	Y	0	0	0	58.4104985315353	58.6104997997172
17347.5	100	20	0	1	2	20	12	1	0	0	0	stim013_stimuli_original_vehicles_planes_1.png	B	0	0	0	58.8105022865348	59.0105208647437
17447.5	100	21	0	1	2	21	13	10	0	0	0	stim014_stimuli_original_vehicles_planes_2.png	Q	0	0	0	59.2105445628986	59.4105397355743
17547.5	100	22	0	1	2	22	7	13	0	0	0	stim008_stimuli_original_animals_fish_4.png	U	0	0	0	59.610530031845	59.810564213898
17647.5	100	23	0	1	2	23	15	14	0	0	0	stim016_stimuli_original_vehicles_planes_4.png	V	0	0	0	60.0105493902229	60.2105789403431
17747.5	100	24	0	1	2	24	3	12	0	1	0	stim004_stimuli_original_animals_birds_4.png	T	0	0	0	60.4105767947622	60.6105802566744
17847.5	100	25	0	1	2	25	0	6	0	0	0	stim001_stimuli_original_animals_birds_1.png	G	0	0	0	60.8105707969517	61.0105905942619
17947.5	100	26	0	1	2	26	1	12	0	1	1	stim002_stimuli_original_animals_birds_2.png	T	0	0	0	61.2105745514855	61.4105916670524
18047.5	100	27	0	1	2	27	7	3	1	0	0	stim008_stimuli_original_animals_fish_4.png	D	0	0	0	61.6105948854238	61.8105837185867
18147.5	100	28	0	1	2	28	2	7	0	0	0	stim003_stimuli_original_animals_birds_3.png	J	0	0	0	62.0105869369581	62.2105933250859
18247.5	100	29	0	1	2	29	7	5	1	0	0	stim008_stimuli_original_animals_fish_4.png	F	0	0	0	62.4106028820388	62.6106087821536
18347.5	100	30	0	1	2	30	4	9	0	0	0	stim005_stimuli_original_animals_fish_1.png	L	0	0	0	62.8106154138222	63.0106176570989
18447.5	100	31	0	1	2	31	11	12	0	0	0	stim012_stimuli_original_vehicles_boats_4.png	T	0	0	0	63.2106345286593	63.4106548135169
18547.5	100	32	0	1	2	32	9	4	0	0	0	stim010_stimuli_original_vehicles_boats_2.png	E	0	0	0	63.610663883388	63.8106702710502
18647.5	100	33	0	1	2	33	8	0	0	0	0	stim009_stimuli_original_vehicles_boats_1.png	A	0	0	0	64.0106915314682	64.2106489134021
18747.5	100	34	0	1	2	34	6	11	0	0	0	stim007_stimuli_original_animals_fish_3.png	R	0	0	0	64.4106572517194	64.6106607136317
18847.5	100	35	0	1	2	35	10	2	0	0	0	stim011_stimuli_original_vehicles_boats_3.png	C	0	0	0	64.8106653951108	65.0106786093675
21101.75	100	36	1	0	25	0	6	13	0	0	0	stim007_stimuli_original_animals_fish_3.png	U	0	0	0	73.8276001545601	74.0276016662829
21201.75	100	37	1	0	25	1	10	7	0	0	0	stim011_stimuli_original_vehicles_boats_3.png	J	0	0	0	74.2276068348438	74.427612978965
21301.75	100	38	1	0	25	2	12	15	0	0	0	stim013_stimuli_original_vehicles_planes_1.png	Y	0	0	0	74.6276127835736	74.8278322611004
21401.75	100	39	1	0	25	3	3	12	0	0	0	stim004_stimuli_original_animals_birds_4.png	T	0	0	0	75.0276165385731	75.2276112232357
21501.75	100	40	1	0	25	4	2	14	0	0	0	stim003_stimuli_original_animals_birds_3.png	V	0	0	0	75.4276134665124	75.6276142466813
21601.75	100	41	1	0	25	5	4	1	1	0	0	stim005_stimuli_original_animals_fish_1.png	B	0	0	0	75.8276228285395	76.027641650755
21701.75	100	42	1	0	25	6	9	0	0	0	0	stim010_stimuli_original_vehicles_boats_2.png	A	0	0	0	76.2276643738151	76.42766734818
21801.75	100	43	1	0	25	7	4	6	1	0	1	stim005_stimuli_original_animals_fish_1.png	G	0	0	0	76.6276788562536	76.8276784173213
21901.75	100	44	1	0	25	8	5	4	0	0	0	stim006_stimuli_original_animals_fish_2.png	E	0	0	0	77.0276716393419	77.2276626671664
22001.75	100	45	1	0	25	9	13	2	0	0	0	stim014_stimuli_original_vehicles_planes_2.png	C	f	77.4202326233499	1	77.4276714930311	77.6276761740446
22101.75	100	46	1	0	25	10	8	7	0	1	0	stim009_stimuli_original_vehicles_boats_1.png	J	0	0	0	77.8276767106727	78.0277101611719
22201.75	100	47	1	0	25	11	4	11	0	0	0	stim005_stimuli_original_animals_fish_1.png	R	0	0	0	78.2276950939558	78.4276914852671
22301.75	100	48	1	0	25	12	14	7	0	1	0	stim015_stimuli_original_vehicles_planes_3.png	J	0	0	0	78.6277012866922	78.8277066992596
22401.75	100	49	1	0	25	13	11	9	0	0	0	stim012_stimuli_original_vehicles_boats_4.png	L	0	0	0	79.0277433195151	79.2277165492997
22501.75	100	50	1	0	25	14	7	3	0	0	0	stim008_stimuli_original_animals_fish_4.png	D	0	0	0	79.4277231805027	79.6277583381161
22602	100	51	1	0	25	15	1	10	0	0	0	stim002_stimuli_original_animals_birds_2.png	Q	0	0	0	79.8282072399743	80.0277701383457
22701.75	100	52	1	0	25	16	0	5	0	0	0	stim001_stimuli_original_animals_birds_1.png	F	0	0	0	80.2277762824669	80.4277770626359
22801.75	100	53	1	0	25	17	15	8	0	0	0	stim016_stimuli_original_vehicles_planes_4.png	K	0	0	0	80.627781256102	80.82779276371
22901.75	100	54	1	0	25	18	8	15	0	0	0	stim009_stimuli_original_vehicles_boats_1.png	Y	0	0	0	81.0277996393852	81.2277784766629
23001.75	100	55	1	0	25	19	5	0	0	0	0	stim006_stimuli_original_animals_fish_2.png	A	0	0	0	81.4278026623651	81.6277914959937
23101.75	100	56	1	0	25	20	10	1	0	0	0	stim011_stimuli_original_vehicles_boats_3.png	B	0	0	0	81.8278122688644	82.0278242640197
23201.75	100	57	1	0	25	21	3	7	0	0	0	stim004_stimuli_original_animals_birds_4.png	J	0	0	0	82.2278245566413	82.4278187542222
23301.75	100	58	1	0	25	22	9	11	0	0	0	stim010_stimuli_original_vehicles_boats_2.png	R	0	0	0	82.6278158770874	82.8278176323511
23401.75	100	59	1	0	25	23	7	14	1	0	0	stim008_stimuli_original_animals_fish_4.png	V	0	0	0	83.027857422363	83.2278335774317
23501.75	100	60	1	0	25	24	11	4	0	0	0	stim012_stimuli_original_vehicles_boats_4.png	E	0	0	0	83.4278616644442	83.6278612255119
23601.75	100	61	1	0	25	25	7	8	1	0	1	stim008_stimuli_original_animals_fish_4.png	K	0	0	0	83.8278707829304	84.0278720506467
23701.75	100	62	1	0	25	26	2	13	0	0	0	stim003_stimuli_original_animals_birds_3.png	U	0	0	0	84.2278606402688	84.4278694661334
23801.75	100	63	1	0	25	27	4	5	0	0	0	stim005_stimuli_original_animals_fish_1.png	F	f	84.6204613656737	1	84.6278648828156	84.827888824977
23902	100	64	1	0	25	28	6	4	0	1	0	stim007_stimuli_original_animals_fish_3.png	E	0	0	0	85.0283026183024	85.2278916044161
24001.75	100	65	1	0	25	29	0	9	0	0	0	stim001_stimuli_original_animals_birds_1.png	L	0	0	0	85.4279133519158	85.6279138885438
24101.75	100	66	1	0	25	30	1	4	0	1	0	stim002_stimuli_original_animals_birds_2.png	E	0	0	0	85.8279253961518	86.0279266638681
24201.75	100	67	1	0	25	31	14	2	0	0	0	stim015_stimuli_original_vehicles_planes_3.png	C	0	0	0	86.2279347586446	86.4279321255162
24301.75	100	68	1	0	25	32	12	3	0	0	0	stim013_stimuli_original_vehicles_planes_1.png	D	0	0	0	86.6279419264756	86.82791808201
24401.75	100	69	1	0	25	33	15	12	0	0	0	stim016_stimuli_original_vehicles_planes_4.png	T	0	0	0	87.0279264203273	87.2279435358942
24501.75	100	70	1	0	25	34	7	10	0	0	0	stim008_stimuli_original_animals_fish_4.png	Q	0	0	0	87.4279389521107	87.6279409513809
24601.75	100	71	1	0	25	35	13	6	0	0	0	stim014_stimuli_original_vehicles_planes_2.png	G	0	0	0	87.8279475830495	88.0279486067593
25635.25	100	72	2	1	24	0	12	4	0	0	0	stim013_stimuli_original_vehicles_planes_1.png	E	0	0	0	91.9613964329474	92.1613898989744
25735.25	100	73	2	1	24	1	2	7	0	0	0	stim003_stimuli_original_animals_birds_3.png	J	0	0	0	92.3613997003995	92.5614063316025
25835.25	100	74	2	1	24	2	6	12	0	0	0	stim007_stimuli_original_animals_fish_3.png	T	0	0	0	92.761411500629	92.961427884642
25935.25	100	75	2	1	24	3	4	0	0	0	0	stim005_stimuli_original_animals_fish_1.png	A	0	0	0	93.1618528929539	93.3614608962089
26035.25	100	76	2	1	24	4	8	2	0	0	0	stim009_stimuli_original_vehicles_boats_1.png	C	0	0	0	93.561459238641	93.7614366128109
26135.25	100	77	2	1	24	5	3	13	0	0	0	stim004_stimuli_original_animals_birds_4.png	U	0	0	0	93.9614759148099	94.1614574342966
26235.25	100	78	2	1	24	6	0	5	0	1	0	stim001_stimuli_original_animals_birds_1.png	F	0	0	0	94.3614816199988	94.5614838632755
26335.25	100	79	2	1	24	7	13	11	0	0	0	stim014_stimuli_original_vehicles_planes_2.png	R	0	0	0	94.7614922015928	94.9614981017075
26435.25	100	80	2	1	24	8	9	5	0	1	1	stim010_stimuli_original_vehicles_boats_2.png	F	0	0	0	95.1614866913296	95.3614886905998
26535.25	100	81	2	1	24	9	0	14	1	0	0	stim001_stimuli_original_animals_birds_1.png	V	0	0	0	95.561488495674	95.7615231652744
26635.25	100	82	2	1	24	10	1	9	0	0	0	stim002_stimuli_original_animals_birds_2.png	L	0	0	0	95.9615288218483	96.1615098533221
26735.25	100	83	2	1	24	11	0	1	1	0	0	stim001_stimuli_original_animals_birds_1.png	B	0	0	0	96.3615064886399	96.5615450595506
26835.25	100	84	2	1	24	12	15	8	0	0	0	stim016_stimuli_original_vehicles_planes_4.png	K	0	0	0	96.7615494965576	96.9615624672733
26935.25	100	85	2	1	24	13	10	5	0	0	0	stim011_stimuli_original_vehicles_boats_3.png	F	0	0	0	97.1615676362999	97.3615701231174
27035.25	100	86	2	1	24	14	11	15	0	0	0	stim012_stimuli_original_vehicles_boats_4.png	Y	0	0	0	97.5615711468272	97.7615609555505
27135.25	100	87	2	1	24	15	5	6	0	0	0	stim006_stimuli_original_animals_fish_2.png	G	0	0	0	97.9615610046312	98.1615605656989
27235.25	100	88	2	1	24	16	14	3	0	0	0	stim015_stimuli_original_vehicles_planes_3.png	D	0	0	0	98.3615813381039	98.5615765107796
27335.25	100	89	2	1	24	17	7	10	0	0	0	stim008_stimuli_original_animals_fish_4.png	Q	0	0	0	98.7615831424482	98.9615802653134
27435.25	100	90	2	1	24	18	10	7	0	0	0	stim011_stimuli_original_vehicles_boats_3.png	J	0	0	0	99.1615981124341	99.3615949917585
27535.25	100	91	2	1	24	19	3	14	0	0	0	stim004_stimuli_original_animals_birds_4.png	V	0	0	0	99.5615994287655	99.7616050853394
27635.25	100	92	2	1	24	20	6	5	0	0	0	stim007_stimuli_original_animals_fish_3.png	F	0	0	0	99.9616187871434	100.16161517892
27735.25	100	93	2	1	24	21	15	11	0	0	0	stim016_stimuli_original_vehicles_planes_4.png	R	0	0	0	100.36162010394	100.56162502896
27835.25	100	94	2	1	24	22	5	10	0	0	0	stim006_stimuli_original_animals_fish_2.png	Q	0	0	0	100.761632635724	100.961640974041
27935.25	100	95	2	1	24	23	8	15	0	0	0	stim009_stimuli_original_vehicles_boats_1.png	Y	0	0	0	101.161643460859	101.361651311629
28035.25	100	96	2	1	24	24	1	0	0	1	0	stim002_stimuli_original_animals_birds_2.png	A	0	0	0	101.561656480189	101.761660430115
28135.25	100	97	2	1	24	25	9	1	0	0	0	stim010_stimuli_original_vehicles_boats_2.png	B	0	0	0	101.961673156824	102.161704413127
28235.25	100	98	2	1	24	26	14	0	0	1	1	stim015_stimuli_original_vehicles_planes_3.png	A	0	0	0	102.361701536458	102.561704266816
28335.25	100	99	2	1	24	27	5	9	1	0	0	stim006_stimuli_original_animals_fish_2.png	L	0	0	0	102.761709191836	102.961694368161
28435.25	100	100	2	1	24	28	11	13	0	0	0	stim012_stimuli_original_vehicles_boats_4.png	U	0	0	0	103.161726356018	103.361703974195
28535.25	100	101	2	1	24	29	5	0	1	0	0	stim006_stimuli_original_animals_fish_2.png	A	0	0	0	103.561722064856	103.761710654944
28635.25	100	102	2	1	24	30	13	3	0	0	0	stim014_stimuli_original_vehicles_planes_2.png	D	f	104.153496325016	1	103.961725331843	104.161749518011
28735.25	100	103	2	1	24	31	2	8	0	0	0	stim003_stimuli_original_animals_birds_3.png	K	0	0	0	104.361737376079	104.561764487997
28835.25	100	104	2	1	24	32	0	4	0	0	0	stim001_stimuli_original_animals_birds_1.png	E	0	0	0	104.761747713666	104.961771655828
28935.25	100	105	2	1	24	33	12	6	0	0	0	stim013_stimuli_original_vehicles_planes_1.png	G	0	0	0	105.161777068395	105.361761269625
29035.25	100	106	2	1	24	34	7	2	0	0	0	stim008_stimuli_original_animals_fish_4.png	C	0	0	0	105.56177009549	105.761776970699
29135.25	100	107	2	1	24	35	4	12	0	0	0	stim005_stimuli_original_animals_fish_1.png	T	0	0	0	105.961793111172	106.161776336841
31672.75	100	108	3	0	20	0	6	15	0	0	0	stim007_stimuli_original_animals_fish_3.png	Y	0	0	0	116.112087974325	116.312071199995
31772.75	100	109	3	0	20	1	0	14	0	0	0	stim001_stimuli_original_animals_birds_1.png	V	0	0	0	116.512088315561	116.712065446191
31872.75	100	110	3	0	20	2	12	1	0	0	0	stim013_stimuli_original_vehicles_planes_1.png	B	0	0	0	116.912089144345	117.112096507568
31972.75	100	111	3	0	20	3	2	8	0	0	0	stim003_stimuli_original_animals_birds_3.png	K	0	0	0	117.312082902994	117.512103431858
32072.75	100	112	3	0	20	4	4	7	0	0	0	stim005_stimuli_original_animals_fish_1.png	J	0	0	0	117.71209787298	117.912336123642
32172.75	100	113	3	0	20	5	9	12	0	0	0	stim010_stimuli_original_vehicles_boats_2.png	T	0	0	0	118.1121245455	118.31210582098
32272.75	100	114	3	0	20	6	1	0	0	0	0	stim002_stimuli_original_animals_birds_2.png	A	0	0	0	118.512104162946	118.712112989277
32373	100	115	3	0	20	7	3	2	0	0	0	stim004_stimuli_original_animals_birds_4.png	C	0	0	0	118.91212254623	119.112124057952
32473	100	116	3	0	20	8	10	3	0	0	0	stim011_stimuli_original_vehicles_boats_3.png	D	0	0	0	119.312133371364	119.512133663986
32573	100	117	3	0	20	9	13	5	0	0	0	stim014_stimuli_original_vehicles_planes_2.png	F	0	0	0	119.71213932056	119.912146439776
32673	100	118	3	0	20	10	9	0	1	1	0	stim010_stimuli_original_vehicles_boats_2.png	A	0	0	0	120.112149901688	120.312156045809
32773	100	119	3	0	20	11	11	10	0	0	0	stim012_stimuli_original_vehicles_boats_4.png	Q	0	0	0	120.512151218485	120.712155167945
32873	100	120	3	0	20	12	9	0	1	1	1	stim010_stimuli_original_vehicles_boats_2.png	A	0	0	0	120.912195201498	121.112200370524
32973	100	121	3	0	20	13	5	11	0	0	0	stim006_stimuli_original_animals_fish_2.png	R	f	121.503964828793	1	121.312203344889	121.512208025903
33073	100	122	3	0	20	14	8	9	0	0	0	stim009_stimuli_original_vehicles_boats_1.png	L	0	0	0	121.712216608226	121.912224946544
33173	100	123	3	0	20	15	15	4	0	0	0	stim016_stimuli_original_vehicles_planes_4.png	E	0	0	0	122.112230115104	122.312217485625
33273	100	124	3	0	20	16	14	6	0	0	0	stim015_stimuli_original_vehicles_planes_3.png	G	0	0	0	122.5122360643	122.712239769753
33373	100	125	3	0	20	17	7	13	0	0	0	stim008_stimuli_original_animals_fish_4.png	U	0	0	0	122.912245913874	123.112230115104
33473	100	126	3	0	20	18	13	7	0	0	0	stim014_stimuli_original_vehicles_planes_2.png	J	0	0	0	123.312261371408	123.512267027982
33573	100	127	3	0	20	19	6	14	0	0	0	stim007_stimuli_original_animals_fish_3.png	V	0	0	0	123.712248303462	123.912254691124
33673	100	128	3	0	20	20	4	15	0	0	0	stim005_stimuli_original_animals_fish_1.png	Y	0	0	0	124.112258641049	124.312261858955
33773	100	129	3	0	20	21	9	8	0	0	0	stim010_stimuli_original_vehicles_boats_2.png	K	0	0	0	124.512266540434	124.712271221448
33873	100	130	3	0	20	22	11	5	0	0	0	stim012_stimuli_original_vehicles_boats_4.png	F	0	0	0	124.912276390009	125.112283753231
33973	100	131	3	0	20	23	0	9	1	1	0	stim001_stimuli_original_animals_birds_1.png	L	0	0	0	125.312286971603	125.512290189974
34073	100	132	3	0	20	24	10	11	0	0	0	stim011_stimuli_original_vehicles_boats_3.png	R	0	0	0	125.712313156575	125.912306135055
34173	100	133	3	0	20	25	0	9	1	1	1	stim001_stimuli_original_animals_birds_1.png	L	0	0	0	126.11230935296	126.312327931635
34273	100	134	3	0	20	26	5	13	0	0	0	stim006_stimuli_original_animals_fish_2.png	U	0	0	0	126.512345534284	126.712345095817
34373	100	135	3	0	20	27	3	10	0	0	0	stim004_stimuli_original_animals_birds_4.png	Q	f	126.904903836548	1	126.91235465277	127.112362747546
34473	100	136	3	0	20	28	2	3	0	0	0	stim003_stimuli_original_animals_birds_3.png	D	0	0	0	127.312369622756	127.51236942783
34573	100	137	3	0	20	29	0	1	0	0	0	stim001_stimuli_original_animals_birds_1.png	B	0	0	0	127.712359724101	127.912360016722
34673	100	138	3	0	20	30	12	9	0	0	0	stim013_stimuli_original_vehicles_planes_1.png	L	0	0	0	128.112364210188	128.312381081749
34773	100	139	3	0	20	31	7	4	0	0	0	stim008_stimuli_original_animals_fish_4.png	E	0	0	0	128.512637617998	128.712381423451
34873	100	140	3	0	20	32	8	2	0	0	0	stim009_stimuli_original_vehicles_boats_1.png	C	0	0	0	128.912383178715	129.112385909539
34973	100	141	3	0	20	33	1	12	0	0	0	stim002_stimuli_original_animals_birds_2.png	T	0	0	0	129.31242082268	129.512422334403
35073	100	142	3	0	20	34	14	0	0	0	0	stim015_stimuli_original_vehicles_planes_3.png	A	0	0	0	129.712429941166	129.912430965342
35173	100	143	3	0	20	35	15	6	0	0	0	stim016_stimuli_original_vehicles_planes_4.png	G	0	0	0	130.112439791206	130.312444228679
35989.75	100	144	4	1	38	0	6	12	0	0	0	stim007_stimuli_original_animals_fish_3.png	T	0	0	0	133.379189743195	133.579196618404
36089.75	100	145	4	1	38	1	3	9	0	0	0	stim004_stimuli_original_animals_birds_4.png	L	0	0	0	133.779200812336	133.979207444005
36189.75	100	146	4	1	38	2	4	0	0	0	0	stim005_stimuli_original_animals_fish_1.png	A	0	0	0	134.179198959377	134.379221194424
36289.75	100	147	4	1	38	3	1	7	0	0	0	stim002_stimuli_original_animals_birds_2.png	J	0	0	0	134.579226119444	134.779209345579
36389.75	100	148	4	1	38	4	14	15	0	0	0	stim015_stimuli_original_vehicles_planes_3.png	Y	0	0	0	134.97923523793	135.179242113605
36489.75	100	149	4	1	38	5	6	8	1	0	0	stim007_stimuli_original_animals_fish_3.png	K	0	0	0	135.379246307071	135.579250744544
36589.75	100	150	4	1	38	6	10	14	0	0	0	stim011_stimuli_original_vehicles_boats_3.png	V	0	0	0	135.779231044464	135.97922646068
36689.75	100	151	4	1	38	7	6	3	1	0	0	stim007_stimuli_original_animals_fish_3.png	D	0	0	0	136.179670974147	136.379241674673
36789.75	100	152	4	1	38	8	9	1	0	1	0	stim010_stimuli_original_vehicles_boats_2.png	B	0	0	0	136.57925001299	136.779248598963
36889.75	100	153	4	1	38	9	7	10	0	0	0	stim008_stimuli_original_animals_fish_4.png	Q	0	0	0	136.979285950307	137.179285267834
36989.75	100	154	4	1	38	10	13	1	0	1	1	stim014_stimuli_original_vehicles_planes_2.png	B	0	0	0	137.379281903151	137.579302432016
37089.75	100	155	4	1	38	11	11	5	0	0	0	stim012_stimuli_original_vehicles_boats_4.png	F	0	0	0	137.77930540638	137.97929545911
37189.75	100	156	4	1	38	12	0	2	0	0	0	stim001_stimuli_original_animals_birds_1.png	C	0	0	0	138.179319401272	138.37932310719
37289.75	100	157	4	1	38	13	2	13	0	0	0	stim003_stimuli_original_animals_birds_3.png	U	0	0	0	138.579329494853	138.779335638974
37389.75	100	158	4	1	38	14	5	11	0	0	0	stim006_stimuli_original_animals_fish_2.png	R	0	0	0	138.979338613339	139.179328422062
37489.75	100	159	4	1	38	15	8	6	0	0	0	stim009_stimuli_original_vehicles_boats_1.png	G	0	0	0	139.379349926021	139.579354119487
37589.75	100	160	4	1	38	16	12	4	0	0	0	stim013_stimuli_original_vehicles_planes_1.png	E	0	0	0	139.779338076711	139.979332274292
37689.75	100	161	4	1	38	17	15	1	0	0	0	stim016_stimuli_original_vehicles_planes_4.png	B	0	0	0	140.17938327929	140.379356752615
37789.75	100	162	4	1	38	18	1	15	0	0	0	stim002_stimuli_original_animals_birds_2.png	Y	0	0	0	140.579369235784	140.779371722601
37889.75	100	163	4	1	38	19	4	12	0	0	0	stim005_stimuli_original_animals_fish_1.png	T	0	0	0	140.979374453425	141.17937742779
37989.75	100	164	4	1	38	20	6	8	0	0	0	stim007_stimuli_original_animals_fish_3.png	K	0	0	0	141.379394055344	141.57987392135
38089.75	100	165	4	1	38	21	11	5	0	0	0	stim012_stimuli_original_vehicles_boats_4.png	F	0	0	0	141.779425604269	141.97942565335
38189.75	100	166	4	1	38	22	13	2	0	0	0	stim014_stimuli_original_vehicles_planes_2.png	C	0	0	0	142.17943057837	142.379435015377
38289.75	100	167	4	1	38	23	2	0	0	0	0	stim003_stimuli_original_animals_birds_3.png	A	0	0	0	142.5794435977	142.779443402775
38389.75	100	168	4	1	38	24	5	11	0	0	0	stim006_stimuli_original_animals_fish_2.png	R	0	0	0	142.979450277984	143.179448863957
38489.75	100	169	4	1	38	25	1	13	1	0	0	stim002_stimuli_original_animals_birds_2.png	U	0	0	0	143.379450863227	143.579467003234
38589.75	100	170	4	1	38	26	10	7	0	0	0	stim011_stimuli_original_vehicles_boats_3.png	J	0	0	0	143.779454861768	143.97945539793
38689.75	100	171	4	1	38	27	1	9	1	0	0	stim002_stimuli_original_animals_birds_2.png	L	0	0	0	144.179459347855	144.379488409963
38789.75	100	172	4	1	38	28	3	6	0	1	0	stim004_stimuli_original_animals_birds_4.png	G	0	0	0	144.579494310077	144.779499235097
38889.75	100	173	4	1	38	29	14	10	0	0	0	stim015_stimuli_original_vehicles_planes_3.png	Q	0	0	0	144.97950269701	145.179509328678
38989.75	100	174	4	1	38	30	8	6	0	1	1	stim009_stimuli_original_vehicles_boats_1.png	G	0	0	0	145.379514253698	145.57952649286
39089.75	100	175	4	1	38	31	15	14	0	0	0	stim016_stimuli_original_vehicles_planes_4.png	V	0	0	0	145.779528004583	145.979529272299
39189.75	100	176	4	1	38	32	7	1	0	0	0	stim008_stimuli_original_animals_fish_4.png	B	f	146.371300070081	1	146.179536391515	146.379540584981
39289.75	100	177	4	1	38	33	0	4	0	0	0	stim001_stimuli_original_animals_birds_1.png	E	0	0	0	146.579536732752	146.779533124529
39389.75	100	178	4	1	38	34	9	3	0	0	0	stim010_stimuli_original_vehicles_boats_2.png	D	0	0	0	146.979549752083	147.179541511461
39489.75	100	179	4	1	38	35	12	6	0	0	0	stim013_stimuli_original_vehicles_planes_1.png	G	0	0	0	147.379546924029	147.579557700548
41244	100	180	5	0	12	0	13	13	0	0	0	stim014_stimuli_original_vehicles_planes_2.png	U	0	0	0	154.396417561453	154.596421267372
41344	100	181	5	0	12	1	0	11	0	0	0	stim001_stimuli_original_animals_birds_1.png	R	0	0	0	154.796430581249	154.996431117412
41444	100	182	5	0	12	2	12	9	0	0	0	stim013_stimuli_original_vehicles_planes_1.png	L	0	0	0	155.196442137472	155.396429752
41544	100	183	5	0	12	3	6	8	0	0	0	stim007_stimuli_original_animals_fish_3.png	K	0	0	0	155.596458570566	155.796453986783
41644	100	184	5	0	12	4	8	3	1	0	0	stim009_stimuli_original_vehicles_boats_1.png	D	f	155.989033939317	0	155.996461593546	156.196465543471
41744	100	185	5	0	12	5	4	14	0	0	0	stim005_stimuli_original_animals_fish_1.png	V	0	0	0	156.39647217514	156.596474417951
41844	100	186	5	0	12	6	8	12	1	0	1	stim009_stimuli_original_vehicles_boats_1.png	T	0	0	0	156.796453499235	156.996492313687
41944	100	187	5	0	12	7	15	8	0	1	0	stim016_stimuli_original_vehicles_planes_4.png	K	0	0	0	157.196463105269	157.396467542741
42044	100	188	5	0	12	8	2	0	0	0	0	stim003_stimuli_original_animals_birds_3.png	A	0	0	0	157.596475393046	157.796507624909
42144	100	189	5	0	12	9	11	8	0	1	0	stim012_stimuli_original_vehicles_boats_4.png	K	0	0	0	157.996489631943	158.196492849849
42244	100	190	5	0	12	10	8	1	0	0	0	stim009_stimuli_original_vehicles_boats_1.png	B	0	0	0	158.39650484547	158.596499286592
42344	100	191	5	0	12	11	5	2	0	0	0	stim006_stimuli_original_animals_fish_2.png	C	0	0	0	158.796506405808	158.996506454423
42444	100	192	5	0	12	12	14	6	0	0	0	stim015_stimuli_original_vehicles_planes_3.png	G	0	0	0	159.196524301544	159.396521424409
42544	100	193	5	0	12	13	10	7	0	0	0	stim011_stimuli_original_vehicles_boats_3.png	J	0	0	0	159.596528543625	159.796540539246
42644	100	194	5	0	12	14	1	10	0	0	0	stim002_stimuli_original_animals_birds_2.png	Q	0	0	0	159.996537662111	160.196547707077
42744	100	195	5	0	12	15	7	15	0	0	0	stim008_stimuli_original_animals_fish_4.png	Y	0	0	0	160.396553119645	160.596581694204
42844	100	196	5	0	12	16	9	4	0	0	0	stim010_stimuli_original_vehicles_boats_2.png	E	0	0	0	160.796587350778	160.99659666419
42944	100	197	5	0	12	17	3	5	0	0	0	stim004_stimuli_original_animals_birds_4.png	F	0	0	0	161.196601345204	161.396601881832
43044	100	198	5	0	12	18	5	3	0	0	0	stim006_stimuli_original_animals_fish_2.png	D	0	0	0	161.5965955914	161.79661538871
43144	100	199	5	0	12	19	4	9	0	0	0	stim005_stimuli_original_animals_fish_1.png	L	0	0	0	161.996620069724	162.196635966189
43244	100	200	5	0	12	20	15	7	0	0	0	stim016_stimuli_original_vehicles_planes_4.png	J	0	0	0	162.396615778562	162.596617534291
43344	100	201	5	0	12	21	10	1	0	0	0	stim011_stimuli_original_vehicles_boats_3.png	B	0	0	0	162.796625872608	162.996645425912
43444	100	202	5	0	12	22	7	10	0	0	0	stim008_stimuli_original_animals_fish_4.png	Q	0	0	0	163.196654495783	163.396657714155
43544	100	203	5	0	12	23	6	14	0	0	0	stim007_stimuli_original_animals_fish_3.png	V	0	0	0	163.597118075006	163.796649522148
43644	100	204	5	0	12	24	2	5	0	0	0	stim003_stimuli_original_animals_birds_3.png	F	0	0	0	163.996650789864	164.196659128182
43744	100	205	5	0	12	25	1	8	0	0	0	stim002_stimuli_original_animals_birds_2.png	K	0	0	0	164.396659176797	164.596663126722
43844	100	206	5	0	12	26	8	11	1	0	0	stim009_stimuli_original_vehicles_boats_1.png	R	0	0	0	164.796670489479	164.996681265999
43944	100	207	5	0	12	27	0	2	0	0	0	stim001_stimuli_original_animals_birds_1.png	C	0	0	0	165.196679120418	165.396681363694
44044	100	208	5	0	12	28	8	15	1	0	1	stim009_stimuli_original_vehicles_boats_1.png	Y	0	0	0	165.596718471497	165.796693163924
44144	100	209	5	0	12	29	12	8	0	1	0	stim013_stimuli_original_vehicles_planes_1.png	K	f	165.989290914498	1	165.996700770687	166.196735684294
44244	100	210	5	0	12	30	14	4	0	0	0	stim015_stimuli_original_vehicles_planes_3.png	E	0	0	0	166.396727199666	166.596726760734
44344	100	211	5	0	12	31	3	8	0	1	0	stim004_stimuli_original_animals_birds_4.png	K	0	0	0	166.796751434449	166.996755871456
44444	100	212	5	0	12	32	8	6	0	0	0	stim009_stimuli_original_vehicles_boats_1.png	G	0	0	0	167.196744217537	167.396764502395
44544	100	213	5	0	12	33	9	12	0	0	0	stim010_stimuli_original_vehicles_boats_2.png	T	0	0	0	167.596763575915	167.796776790638
44644	100	214	5	0	12	34	11	0	0	0	0	stim012_stimuli_original_vehicles_boats_4.png	A	0	0	0	167.996775864158	168.196786396671
44744	100	215	5	0	12	35	13	13	0	0	0	stim014_stimuli_original_vehicles_planes_2.png	U	0	0	0	168.396793759428	168.596790638752
45835.75	100	216	6	1	26	0	6	14	0	0	0	stim007_stimuli_original_animals_fish_3.png	V	0	0	0	172.763579697814	172.963562192395
45935.75	100	217	6	1	26	1	7	2	0	0	0	stim008_stimuli_original_animals_fish_4.png	C	0	0	0	173.163567360956	173.363563508727
46035.75	100	218	6	1	26	2	9	12	0	0	0	stim010_stimuli_original_vehicles_boats_2.png	T	0	0	0	173.563575504348	173.763596033212
46135.75	100	219	6	1	26	3	11	0	0	0	0	stim012_stimuli_original_vehicles_boats_4.png	A	0	0	0	173.963589011226	174.163586865645
46235.75	100	220	6	1	26	4	1	5	0	0	0	stim002_stimuli_original_animals_birds_2.png	F	0	0	0	174.363589596469	174.563622071873
46335.75	100	221	6	1	26	5	4	1	0	0	0	stim005_stimuli_original_animals_fish_1.png	B	0	0	0	174.763612856157	174.963630946819
46435.75	100	222	6	1	26	6	13	4	0	0	0	stim014_stimuli_original_vehicles_planes_2.png	E	0	0	0	175.163640747778	175.363626899198
46535.75	100	223	6	1	26	7	11	15	1	0	0	stim012_stimuli_original_vehicles_boats_4.png	Y	0	0	0	175.563649378717	175.763653084636
46635.75	100	224	6	1	26	8	5	10	0	0	0	stim006_stimuli_original_animals_fish_2.png	Q	0	0	0	175.963665567338	176.163654157426
46735.75	100	225	6	1	26	9	11	11	1	0	0	stim012_stimuli_original_vehicles_boats_4.png	R	0	0	0	176.363648598548	176.563647428062
46835.75	100	226	6	1	26	10	14	3	0	0	0	stim015_stimuli_original_vehicles_planes_3.png	D	0	0	0	176.763666493818	176.963672394399
46935.75	100	227	6	1	26	11	2	6	0	0	0	stim003_stimuli_original_animals_birds_3.png	G	0	0	0	177.163694873452	177.363699554466
47035.75	100	228	6	1	26	12	8	1	0	1	0	stim009_stimuli_original_vehicles_boats_1.png	B	0	0	0	177.563693020493	177.7641377775
47135.75	100	229	6	1	26	13	0	8	0	0	0	stim001_stimuli_original_animals_birds_1.png	K	0	0	0	177.963719449472	178.163721204735
47235.75	100	230	6	1	26	14	12	1	0	1	1	stim013_stimuli_original_vehicles_planes_1.png	B	0	0	0	178.363711501472	178.563698384445
47335.75	100	231	6	1	26	15	10	9	0	0	0	stim011_stimuli_original_vehicles_boats_3.png	L	0	0	0	178.763705016114	178.963708965573
47435.75	100	232	6	1	26	16	3	13	0	0	0	stim004_stimuli_original_animals_birds_4.png	U	f	179.156260636169	1	179.163716328796	179.363750998396
47535.75	100	233	6	1	26	17	15	7	0	0	0	stim016_stimuli_original_vehicles_planes_4.png	J	0	0	0	179.563726422377	179.76374280639
47635.75	100	234	6	1	26	18	7	15	0	0	0	stim008_stimuli_original_animals_fish_4.png	Y	0	0	0	179.963746268302	180.163748999126
47735.75	100	235	6	1	26	19	13	3	0	0	0	stim014_stimuli_original_vehicles_planes_2.png	D	0	0	0	180.363759775646	180.563754948322
47835.75	100	236	6	1	26	20	9	10	0	0	0	stim010_stimuli_original_vehicles_boats_2.png	Q	0	0	0	180.763768406585	180.963766992092
47935.75	100	237	6	1	26	21	1	12	1	0	0	stim002_stimuli_original_animals_birds_2.png	T	0	0	0	181.163774842862	181.363775623031
48035.75	100	238	6	1	26	22	8	0	0	0	0	stim009_stimuli_original_vehicles_boats_1.png	A	0	0	0	181.563782011159	181.763787667267
48135.75	100	239	6	1	26	23	1	8	1	0	0	stim002_stimuli_original_animals_birds_2.png	K	0	0	0	181.963799906429	182.163800930604
48235.75	100	240	6	1	26	24	6	2	0	0	0	stim007_stimuli_original_animals_fish_3.png	C	0	0	0	182.363803661428	182.56381199928
48335.75	100	241	6	1	26	25	3	14	0	0	0	stim004_stimuli_original_animals_birds_4.png	V	0	0	0	182.763816436753	182.963817216922
48435.75	100	242	6	1	26	26	11	11	0	1	0	stim012_stimuli_original_vehicles_boats_4.png	R	0	0	0	183.16384457238	183.36382877361
48535.75	100	243	6	1	26	27	10	5	0	0	0	stim011_stimuli_original_vehicles_boats_3.png	F	0	0	0	183.563839793671	183.763851789292
48635.75	100	244	6	1	26	28	15	11	0	1	1	stim016_stimuli_original_vehicles_planes_4.png	R	0	0	0	183.963845255319	184.16385627538
48735.75	100	245	6	1	26	29	4	13	0	0	0	stim005_stimuli_original_animals_fish_1.png	U	0	0	0	184.363866807893	184.56386929471
48835.75	100	246	6	1	26	30	1	4	0	0	0	stim002_stimuli_original_animals_birds_2.png	E	0	0	0	184.763882508967	184.963879632298
48935.75	100	247	6	1	26	31	5	1	0	0	0	stim006_stimuli_original_animals_fish_2.png	B	0	0	0	185.163907475304	185.363912400324
49035.75	100	248	6	1	26	32	0	11	0	0	0	stim001_stimuli_original_animals_birds_1.png	R	0	0	0	185.563902696595	185.763911278918
49135.75	100	249	6	1	26	33	12	9	0	0	0	stim013_stimuli_original_vehicles_planes_1.png	L	0	0	0	185.963911815081	186.163936000783
49235.75	100	250	6	1	26	34	2	7	0	0	0	stim003_stimuli_original_animals_birds_3.png	J	0	0	0	186.363940194715	186.563944631722
49335.75	100	251	6	1	26	35	14	6	0	0	0	stim015_stimuli_original_vehicles_planes_3.png	G	0	0	0	186.763954433147	186.963954237755
50690	100	252	7	0	40	0	7	8	0	0	0	stim008_stimuli_original_animals_fish_4.png	K	0	0	0	192.180738615803	192.380774992052
50790	100	253	7	0	40	1	6	7	0	0	0	stim007_stimuli_original_animals_fish_3.png	J	0	0	0	192.58078333037	192.780781428795
50890	100	254	7	0	40	2	10	0	0	0	0	stim011_stimuli_original_vehicles_boats_3.png	A	0	0	0	192.980792936403	193.180779819377
50990	100	255	7	0	40	3	9	13	0	0	0	stim010_stimuli_original_vehicles_boats_2.png	U	0	0	0	193.380803273991	193.580797715113
51090	100	256	7	0	40	4	13	11	0	0	0	stim014_stimuli_original_vehicles_planes_2.png	R	0	0	0	193.780798982829	193.980800738558
51190	100	257	7	0	40	5	14	3	0	0	0	stim015_stimuli_original_vehicles_planes_3.png	D	0	0	0	194.180825411808	194.380829361733
51290	100	258	7	0	40	6	15	0	0	1	0	stim016_stimuli_original_vehicles_planes_4.png	A	0	0	0	194.580835017841	194.780826289672
51390	100	259	7	0	40	7	12	5	0	0	0	stim013_stimuli_original_vehicles_planes_1.png	F	0	0	0	194.980842673685	195.180846379604
51490	100	260	7	0	40	8	0	0	1	1	0	stim001_stimuli_original_animals_birds_1.png	A	0	0	0	195.380839357618	195.580856717192
51590	100	261	7	0	40	9	4	14	0	0	0	stim005_stimuli_original_animals_fish_1.png	V	0	0	0	195.780830434524	195.980852913577
51690	100	262	7	0	40	10	0	4	1	0	1	stim001_stimuli_original_animals_birds_1.png	E	0	0	0	196.180877343286	196.380881293211
51790	100	263	7	0	40	11	1	12	0	0	0	stim002_stimuli_original_animals_birds_2.png	T	0	0	0	196.580888655968	196.780857497361
51890	100	264	7	0	40	12	3	2	0	0	0	stim004_stimuli_original_animals_birds_4.png	C	0	0	0	196.980901675764	197.180899286177
51990	100	265	7	0	40	13	5	9	0	0	0	stim006_stimuli_original_animals_fish_2.png	L	0	0	0	197.380887388252	197.580913524609
52090	100	266	7	0	40	14	0	15	0	0	0	stim001_stimuli_original_animals_birds_1.png	Y	0	0	0	197.780899920035	197.980897530913
52190.25	100	267	7	0	40	15	8	10	0	0	0	stim009_stimuli_original_vehicles_boats_1.png	Q	0	0	0	198.181374958251	198.380913231988
52290	100	268	7	0	40	16	2	6	0	0	0	stim003_stimuli_original_animals_birds_3.png	G	0	0	0	198.580925471149	198.780925032683
52390	100	269	7	0	40	17	11	1	0	0	0	stim012_stimuli_original_vehicles_boats_4.png	B	0	0	0	198.980930201244	199.180927080568
52490	100	270	7	0	40	18	1	11	0	0	0	stim002_stimuli_original_animals_birds_2.png	R	0	0	0	199.380959555972	199.580969600938
52590	100	271	7	0	40	19	6	2	0	0	0	stim007_stimuli_original_animals_fish_3.png	C	0	0	0	199.780959653202	199.980964578222
52690	100	272	7	0	40	20	10	8	0	0	0	stim011_stimuli_original_vehicles_boats_3.png	K	0	0	0	200.180973648094	200.380975890905
52790	100	273	7	0	40	21	15	0	0	0	0	stim016_stimuli_original_vehicles_planes_4.png	A	0	0	0	200.580981303472	200.780992079992
52890	100	274	7	0	40	22	9	5	0	0	0	stim010_stimuli_original_vehicles_boats_2.png	F	0	0	0	200.98098969087	201.181006074883
52990	100	275	7	0	40	23	2	3	0	0	0	stim003_stimuli_original_animals_birds_3.png	D	0	0	0	201.380988568999	201.580995688681
53090	100	276	7	0	40	24	12	1	0	0	0	stim013_stimuli_original_vehicles_planes_1.png	B	0	0	0	201.781000613235	201.981012852862
53190	100	277	7	0	40	25	4	0	0	1	0	stim005_stimuli_original_animals_fish_1.png	A	0	0	0	202.181054836605	202.381041476037
53290	100	278	7	0	40	26	14	4	0	0	0	stim015_stimuli_original_vehicles_planes_3.png	E	0	0	0	202.581048351247	202.781050594524
53390	100	279	7	0	40	27	0	0	1	1	0	stim001_stimuli_original_animals_birds_1.png	A	0	0	0	202.981042597443	203.181063369848
53490	100	280	7	0	40	28	5	12	0	0	0	stim006_stimuli_original_animals_fish_2.png	T	0	0	0	203.381067563314	203.58153572632
53590	100	281	7	0	40	29	0	15	1	0	1	stim001_stimuli_original_animals_birds_1.png	Y	0	0	0	203.781065222807	203.98106380878
53690	100	282	7	0	40	30	3	14	0	0	0	stim004_stimuli_original_animals_birds_4.png	V	0	0	0	204.181073853746	204.38107658457
53790	100	283	7	0	40	31	11	13	0	0	0	stim012_stimuli_original_vehicles_boats_4.png	U	0	0	0	204.581100526731	204.781109596137
53890	100	284	7	0	40	32	13	9	0	0	0	stim014_stimuli_original_vehicles_planes_2.png	L	0	0	0	204.981110376306	205.181096528191
53990	100	285	7	0	40	33	0	10	0	0	0	stim001_stimuli_original_animals_birds_1.png	Q	0	0	0	205.381124371197	205.581127589568
54090	100	286	7	0	40	34	7	6	0	0	0	stim008_stimuli_original_animals_fish_4.png	G	0	0	0	205.781133489683	205.981122079305
54190	100	287	7	0	40	35	8	7	0	0	0	stim009_stimuli_original_vehicles_boats_1.png	J	0	0	0	206.181142120622	206.381132660434
54752.5	100	288	8	1	46	0	2	14	0	0	0	stim003_stimuli_original_animals_birds_3.png	V	0	0	0	208.43120502308	208.631205072161
54852.5	100	289	8	1	46	1	10	6	0	0	0	stim011_stimuli_original_vehicles_boats_3.png	G	0	0	0	208.831212434918	209.031224918086
54952.5	100	290	8	1	46	2	7	13	0	0	0	stim008_stimuli_original_animals_fish_4.png	U	0	0	0	209.231225698255	209.43122964818
55052.5	100	291	8	1	46	3	9	11	0	0	0	stim010_stimuli_original_vehicles_boats_2.png	R	0	0	0	209.631244325545	209.831223162822
55152.5	100	292	8	1	46	4	3	8	0	0	0	stim004_stimuli_original_animals_birds_4.png	K	0	0	0	210.031253200024	210.231723800767
55252.5	100	293	8	1	46	5	14	0	0	0	0	stim015_stimuli_original_vehicles_planes_3.png	A	0	0	0	210.43123452412	210.631234329194
55352.5	100	294	8	1	46	6	6	7	0	0	0	stim007_stimuli_original_animals_fish_3.png	J	0	0	0	210.831253151409	211.031275874469
55452.5	100	295	8	1	46	7	1	9	0	0	0	stim002_stimuli_original_animals_birds_2.png	L	0	0	0	211.231282262132	211.431279384997
55552.5	100	296	8	1	46	8	0	12	0	0	0	stim001_stimuli_original_animals_birds_1.png	T	0	0	0	211.631293574814	211.831293379888
55652.5	100	297	8	1	46	9	14	6	1	1	0	stim015_stimuli_original_vehicles_planes_3.png	G	0	0	0	212.031300011557	212.231303473469
55752.5	100	298	8	1	46	10	4	5	0	0	0	stim005_stimuli_original_animals_fish_1.png	F	0	0	0	212.431312299334	212.631301620509
55852.5	100	299	8	1	46	11	14	6	1	1	1	stim015_stimuli_original_vehicles_planes_3.png	G	0	0	0	212.83131849207	213.031292453408
55952.5	100	300	8	1	46	12	12	1	0	0	0	stim013_stimuli_original_vehicles_planes_1.png	B	f	213.423062763177	1	213.231296402868	213.431335217319
56052.5	100	301	8	1	46	13	15	3	0	0	0	stim016_stimuli_original_vehicles_planes_4.png	D	0	0	0	213.631330877542	213.831339703407
56152.5	100	302	8	1	46	14	8	2	0	0	0	stim009_stimuli_original_vehicles_boats_1.png	C	0	0	0	214.03133828938	214.231368326582
56252.5	100	303	8	1	46	15	5	4	0	0	0	stim006_stimuli_original_animals_fish_2.png	E	0	0	0	214.431348626968	214.631366230082
56352.5	100	304	8	1	46	16	13	10	0	0	0	stim014_stimuli_original_vehicles_planes_2.png	Q	0	0	0	214.831374324393	215.031379005872
56452.5	100	305	8	1	46	17	11	15	0	0	0	stim012_stimuli_original_vehicles_boats_4.png	Y	0	0	0	215.231369058136	215.431372764055
56552.5	100	306	8	1	46	18	15	11	0	0	0	stim016_stimuli_original_vehicles_planes_4.png	R	0	0	0	215.631402070168	215.831368472893
56652.5	100	307	8	1	46	19	10	13	0	0	0	stim011_stimuli_original_vehicles_boats_3.png	U	0	0	0	216.031412895303	216.231391001027
56752.5	100	308	8	1	46	20	4	5	0	0	0	stim005_stimuli_original_animals_fish_1.png	F	0	0	0	216.431393487845	216.631398412865
56852.5	100	309	8	1	46	21	2	8	0	0	0	stim003_stimuli_original_animals_birds_3.png	K	0	0	0	216.831400899682	217.031401192304
56952.5	100	310	8	1	46	22	3	15	0	0	0	stim004_stimuli_original_animals_birds_4.png	Y	0	0	0	217.231403191574	217.431412748992
57052.5	100	311	8	1	46	23	1	12	0	0	0	stim002_stimuli_original_animals_birds_2.png	T	0	0	0	217.631414260715	217.831432838924
57152.75	100	312	8	1	46	24	6	14	1	1	0	stim007_stimuli_original_animals_fish_3.png	V	0	0	0	218.031463120133	218.231457561255
57252.75	100	313	8	1	46	25	5	4	0	0	0	stim006_stimuli_original_animals_fish_2.png	E	0	0	0	218.431467362214	218.631469361484
57352.75	100	314	8	1	46	26	6	14	1	1	1	stim007_stimuli_original_animals_fish_3.png	V	0	0	0	218.831480138004	219.031482868362
57452.75	100	315	8	1	46	27	12	0	0	0	0	stim013_stimuli_original_vehicles_planes_1.png	A	0	0	0	219.231489500031	219.43147248216
57552.75	100	316	8	1	46	28	9	1	0	0	0	stim010_stimuli_original_vehicles_boats_2.png	B	f	219.624059992842	1	219.631500325166	219.831483063288
57652.75	100	317	8	1	46	29	7	6	0	0	0	stim008_stimuli_original_animals_fish_4.png	G	0	0	0	220.031482624821	220.231487549376
57752.75	100	318	8	1	46	30	0	14	0	0	0	stim001_stimuli_original_animals_birds_1.png	V	0	0	0	220.431491743308	220.631494473666
57852.75	100	319	8	1	46	31	8	3	0	0	0	stim009_stimuli_original_vehicles_boats_1.png	D	0	0	0	220.831955078524	221.03154942859
57952.75	100	320	8	1	46	32	11	9	0	0	0	stim012_stimuli_original_vehicles_boats_4.png	L	0	0	0	221.231517537963	221.431544893421
58052.75	100	321	8	1	46	33	13	7	0	0	0	stim014_stimuli_original_vehicles_planes_2.png	J	0	0	0	221.631536165252	221.831556206569
58152.75	100	322	8	1	46	34	6	10	0	0	0	stim007_stimuli_original_animals_fish_3.png	Q	0	0	0	222.031563325785	222.231567519251
58252.75	100	323	8	1	46	35	14	2	0	0	0	stim015_stimuli_original_vehicles_planes_3.png	C	0	0	0	222.431550013367	222.631547136698
59615.25	100	324	9	0	0	0	9	4	0	0	0	stim010_stimuli_original_vehicles_boats_2.png	E	0	0	0	227.881692934781	228.081698347349
59715.25	100	325	9	0	0	1	13	3	0	0	0	stim014_stimuli_original_vehicles_planes_2.png	D	0	0	0	228.281705466565	228.481735991314
59815.25	100	326	9	0	0	2	4	6	0	0	0	stim005_stimuli_original_animals_fish_1.png	G	0	0	0	228.681748230476	228.881735357456
59915.25	100	327	9	0	0	3	10	1	0	0	0	stim011_stimuli_original_vehicles_boats_3.png	B	0	0	0	229.081741745118	229.281770563684
60015.25	100	328	9	0	0	4	6	5	0	0	0	stim007_stimuli_original_animals_fish_3.png	F	0	0	0	229.481769149657	229.681756520178
60115.25	100	329	9	0	0	5	7	11	0	0	0	stim008_stimuli_original_animals_fish_4.png	R	0	0	0	229.88176290784	230.081777585205
60215.25	100	330	9	0	0	6	1	0	0	0	0	stim002_stimuli_original_animals_birds_2.png	A	0	0	0	230.28178446088	230.481790848542
60315.25	100	331	9	0	0	7	8	8	0	1	0	stim009_stimuli_original_vehicles_boats_1.png	K	0	0	0	230.682276322041	230.881802892778
60415.25	100	332	9	0	0	8	15	9	0	0	0	stim016_stimuli_original_vehicles_planes_4.png	L	0	0	0	231.081806598697	231.281791531015
60515.25	100	333	9	0	0	9	14	8	0	1	0	stim015_stimuli_original_vehicles_planes_3.png	K	0	0	0	231.481799869332	231.681800405961
60615.25	100	334	9	0	0	10	6	15	1	0	0	stim007_stimuli_original_animals_fish_3.png	Y	0	0	0	231.881798991933	232.081812937744
60715.25	100	335	9	0	0	11	5	10	0	0	0	stim006_stimuli_original_animals_fish_2.png	Q	0	0	0	232.281838830095	232.481843267567
60815.25	100	336	9	0	0	12	6	12	1	0	1	stim007_stimuli_original_animals_fish_3.png	T	0	0	0	232.681851118337	232.881827273872
60915.25	100	337	9	0	0	13	12	2	0	0	0	stim013_stimuli_original_vehicles_planes_1.png	C	0	0	0	233.081834880635	233.281837367453
61015.25	100	338	9	0	0	14	11	8	0	0	0	stim012_stimuli_original_vehicles_boats_4.png	K	0	0	0	233.481845461763	233.681873304769
61115.25	100	339	9	0	0	15	2	13	0	0	0	stim003_stimuli_original_animals_birds_3.png	U	0	0	0	233.881883837283	234.081871939357
61215.25	100	340	9	0	0	16	3	7	0	0	0	stim004_stimuli_original_animals_birds_4.png	J	0	0	0	234.281873938628	234.481867404655
61315.25	100	341	9	0	0	17	0	14	0	0	0	stim001_stimuli_original_animals_birds_1.png	V	0	0	0	234.681884520222	234.881881887093
61415.25	100	342	9	0	0	18	14	0	0	0	0	stim015_stimuli_original_vehicles_planes_3.png	A	0	0	0	235.081887299661	235.281889298931
61515.25	100	343	9	0	0	19	7	3	0	0	0	stim008_stimuli_original_animals_fish_4.png	D	0	0	0	235.481892029289	235.681905731559
61615.25	100	344	9	0	0	20	13	2	0	0	0	stim014_stimuli_original_vehicles_planes_2.png	C	0	0	0	235.881906267721	236.082298362162
61715.25	100	345	9	0	0	21	8	11	0	0	0	stim009_stimuli_original_vehicles_boats_1.png	R	0	0	0	236.281930746511	236.48194932472
61815.25	100	346	9	0	0	22	2	12	0	0	0	stim003_stimuli_original_animals_birds_3.png	T	0	0	0	236.681954737287	236.881961368956
61915.25	100	347	9	0	0	23	12	6	0	1	0	stim013_stimuli_original_vehicles_planes_1.png	G	0	0	0	237.081965562422	237.281969268341
62015.25	100	348	9	0	0	24	10	5	0	0	0	stim011_stimuli_original_vehicles_boats_3.png	F	0	0	0	237.481962734368	237.68198106857
62115.25	100	349	9	0	0	25	15	6	0	1	0	stim016_stimuli_original_vehicles_planes_4.png	G	0	0	0	237.881989894435	238.081991162151
62215.25	100	350	9	0	0	26	8	14	1	0	0	stim009_stimuli_original_vehicles_boats_1.png	V	0	0	0	238.281996574719	238.482003450394
62315.25	100	351	9	0	0	27	9	15	0	0	0	stim010_stimuli_original_vehicles_boats_2.png	Y	0	0	0	238.681983750779	238.88198599359
62415.25	100	352	9	0	0	28	8	8	1	0	1	stim009_stimuli_original_vehicles_boats_1.png	K	0	0	0	239.081992381252	239.282026563305
62515.25	100	353	9	0	0	29	0	1	0	0	0	stim001_stimuli_original_animals_birds_1.png	B	f	239.673765665852	1	239.482001256198	239.682038851548
62615.25	100	354	9	0	0	30	11	7	0	0	0	stim012_stimuli_original_vehicles_boats_4.png	J	0	0	0	239.882019395474	240.0820233454
62715.25	100	355	9	0	0	31	5	6	0	0	0	stim006_stimuli_original_animals_fish_2.png	G	0	0	0	240.282028757967	240.482031975873
62815.25	100	356	9	0	0	32	1	10	0	0	0	stim002_stimuli_original_animals_birds_2.png	Q	0	0	0	240.682039583102	240.882040850818
62915.25	100	357	9	0	0	33	6	4	0	0	0	stim007_stimuli_original_animals_fish_3.png	E	0	0	0	241.08204723848	241.282051675953
63015.25	100	358	9	0	0	34	3	13	0	0	0	stim004_stimuli_original_animals_birds_4.png	U	0	0	0	241.482071716804	241.682068596128
63115.25	100	359	9	0	0	35	4	9	0	0	0	stim005_stimuli_original_animals_fish_1.png	L	0	0	0	241.882096926682	242.082106728107
64136.25	100	360	10	1	20	0	6	15	0	0	0	stim007_stimuli_original_animals_fish_3.png	Y	0	0	0	245.965522907674	246.165516129695
64236.25	100	361	10	1	20	1	0	14	0	0	0	stim001_stimuli_original_animals_birds_1.png	V	0	0	0	246.365524712019	246.565526223741
64336.25	100	362	10	1	20	2	12	1	0	0	0	stim013_stimuli_original_vehicles_planes_1.png	B	0	0	0	246.765534562059	246.965532416478
64436.25	100	363	10	1	20	3	2	8	0	0	0	stim003_stimuli_original_animals_birds_3.png	K	0	0	0	247.165565135423	247.365550555754
64536.25	100	364	10	1	20	4	4	7	0	0	0	stim005_stimuli_original_animals_fish_1.png	J	0	0	0	247.565536951181	247.765553091653
64636.25	100	365	10	1	20	5	9	12	0	0	0	stim010_stimuli_original_vehicles_boats_2.png	T	0	0	0	247.965577764902	248.165575863328
64736.25	100	366	10	1	20	6	1	0	0	0	0	stim002_stimuli_original_animals_birds_2.png	A	0	0	0	248.365582738537	248.565600585658
64836.25	100	367	10	1	20	7	3	2	0	0	0	stim004_stimuli_original_animals_birds_4.png	C	0	0	0	248.765597708523	248.965619456489
64936.25	100	368	10	1	20	8	10	3	0	0	0	stim011_stimuli_original_vehicles_boats_3.png	D	0	0	0	249.165624381509	249.365627355874
65036.25	100	369	10	1	20	9	13	5	0	0	0	stim014_stimuli_original_vehicles_planes_2.png	F	0	0	0	249.565611313097	249.765611118171
65136.25	100	370	10	1	20	10	9	0	1	1	0	stim010_stimuli_original_vehicles_boats_2.png	A	0	0	0	249.965625307988	250.165623162407
65236.25	100	371	10	1	20	11	11	10	0	0	0	stim012_stimuli_original_vehicles_boats_4.png	Q	0	0	0	250.365636620671	250.56566421967
65336.25	100	372	10	1	20	12	9	0	1	1	1	stim010_stimuli_original_vehicles_boats_2.png	A	0	0	0	250.765665975399	250.965671387967
65436.25	100	373	10	1	20	13	5	11	0	0	0	stim006_stimuli_original_animals_fish_2.png	R	0	0	0	251.165656807832	251.365685138851
65536.25	100	374	10	1	20	14	8	9	0	0	0	stim009_stimuli_original_vehicles_boats_1.png	L	f	251.558215841651	1	251.565662513021	251.765661586542
65636.25	100	375	10	1	20	15	15	4	0	0	0	stim016_stimuli_original_vehicles_planes_4.png	E	0	0	0	251.96569771925	252.165702156723
65736.25	100	376	10	1	20	16	14	6	0	0	0	stim015_stimuli_original_vehicles_planes_3.png	G	0	0	0	252.365709031932	252.565701522399
65836.25	100	377	10	1	20	17	7	13	0	0	0	stim008_stimuli_original_animals_fish_4.png	U	0	0	0	252.76571961306	252.965726244729
65936.25	100	378	10	1	20	18	13	7	0	0	0	stim014_stimuli_original_vehicles_planes_2.png	J	0	0	0	253.165731901303	253.365711957682
66036.25	100	379	10	1	20	19	6	14	0	0	0	stim007_stimuli_original_animals_fish_3.png	V	0	0	0	253.565712981857	253.765725952107
66136.25	100	380	10	1	20	20	4	15	0	0	0	stim005_stimuli_original_animals_fish_1.png	Y	0	0	0	253.965726488736	254.165730194654
66236.25	100	381	10	1	20	21	9	8	0	0	0	stim010_stimuli_original_vehicles_boats_2.png	K	0	0	0	254.365763157606	254.565772958566
66336.25	100	382	10	1	20	22	11	5	0	0	0	stim012_stimuli_original_vehicles_boats_4.png	F	0	0	0	254.765758622903	254.965775982011
66436.25	100	383	10	1	20	23	0	9	1	1	0	stim001_stimuli_original_animals_birds_1.png	L	0	0	0	255.16605909355	255.365803630091
66536.25	100	384	10	1	20	24	10	11	0	0	0	stim011_stimuli_original_vehicles_boats_3.png	R	0	0	0	255.565799290314	255.765782515984
66636.25	100	385	10	1	20	25	0	9	1	1	1	stim001_stimuli_original_animals_birds_1.png	L	0	0	0	255.965804263949	256.165793585125
66736.25	100	386	10	1	20	26	5	13	0	0	0	stim006_stimuli_original_animals_fish_2.png	U	0	0	0	256.365818014834	256.565820745658
66836.25	100	387	10	1	20	27	3	10	0	0	0	stim004_stimuli_original_animals_birds_4.png	Q	0	0	0	256.765800314024	256.965832545888
66936.25	100	388	10	1	20	28	2	3	0	0	0	stim003_stimuli_original_animals_birds_3.png	D	0	0	0	257.165839665104	257.365843371022
67036.25	100	389	10	1	20	29	0	1	0	0	0	stim001_stimuli_original_animals_birds_1.png	B	0	0	0	257.565853903536	257.765831034165
67136.25	100	390	10	1	20	30	12	9	0	0	0	stim013_stimuli_original_vehicles_planes_1.png	L	0	0	0	257.965842785779	258.165863314644
67236.25	100	391	10	1	20	31	7	4	0	0	0	stim008_stimuli_original_animals_fish_4.png	E	0	0	0	258.365873359609	258.565880234819
67336.25	100	392	10	1	20	32	8	2	0	0	0	stim009_stimuli_original_vehicles_boats_1.png	C	0	0	0	258.765871750191	258.965870336164
67436.25	100	393	10	1	20	33	1	12	0	0	0	stim002_stimuli_original_animals_birds_2.png	T	0	0	0	259.165870628785	259.365905298386
67536.25	100	394	10	1	20	34	14	0	0	0	0	stim015_stimuli_original_vehicles_planes_3.png	A	0	0	0	259.565913636703	259.765914904419
67636.25	100	395	10	1	20	35	15	6	0	0	0	stim016_stimuli_original_vehicles_planes_4.png	G	0	0	0	259.965918366797	260.165911344811
68769.5	100	396	11	0	31	0	3	6	0	0	0	stim004_stimuli_original_animals_birds_4.png	G	0	0	0	264.49934634706	264.699380041566
68869.5	100	397	11	0	31	1	0	14	0	0	0	stim001_stimuli_original_animals_birds_1.png	V	0	0	0	264.899385454133	265.099371118005
68969.5	100	398	11	0	31	2	7	10	0	0	0	stim008_stimuli_original_animals_fish_4.png	Q	0	0	0	265.299397497904	265.499396327883
69069.5	100	399	11	0	31	3	2	2	0	0	0	stim003_stimuli_original_animals_birds_3.png	C	0	0	0	265.699395401403	265.899392524268
69169.5	100	400	11	0	31	4	9	15	0	0	0	stim010_stimuli_original_vehicles_boats_2.png	Y	0	0	0	266.099417685531	266.299406275153
69269.5	100	401	11	0	31	5	8	0	0	0	0	stim009_stimuli_original_vehicles_boats_1.png	A	0	0	0	266.499434362166	266.699453427922
69369.5	100	402	11	0	31	6	15	5	0	0	0	stim016_stimuli_original_vehicles_planes_4.png	F	0	0	0	266.899440554902	267.099440847524
69469.5	100	403	11	0	31	7	11	11	0	0	0	stim012_stimuli_original_vehicles_boats_4.png	R	0	0	0	267.299449916929	267.499430217315
69569.5	100	404	11	0	31	8	14	4	0	0	0	stim015_stimuli_original_vehicles_planes_3.png	E	0	0	0	267.699425633531	267.89942933945
69669.5	100	405	11	0	31	9	12	1	0	0	0	stim013_stimuli_original_vehicles_planes_1.png	B	0	0	0	268.099476199597	268.299475273117
69769.5	100	406	11	0	31	10	15	12	1	1	0	stim016_stimuli_original_vehicles_planes_4.png	T	0	0	0	268.499481661245	268.699485123158
69869.5	100	407	11	0	31	11	4	13	0	0	0	stim005_stimuli_original_animals_fish_1.png	U	0	0	0	268.89949151082	269.099494241644
69969.5	100	408	11	0	31	12	15	12	1	1	1	stim016_stimuli_original_vehicles_planes_4.png	T	0	0	0	269.29950428661	269.499697432388
70069.5	100	409	11	0	31	13	5	7	0	0	0	stim006_stimuli_original_animals_fish_2.png	J	0	0	0	269.699514624197	269.899490535725
70169.5	100	410	11	0	31	14	13	9	0	0	0	stim014_stimuli_original_vehicles_planes_2.png	L	0	0	0	270.099496679846	270.299527448602
70269.5	100	411	11	0	31	15	6	12	0	0	0	stim007_stimuli_original_animals_fish_3.png	T	f	270.492057419848	1	270.499534080271	270.699520475697
70369.5	100	412	11	0	31	16	10	8	0	0	0	stim011_stimuli_original_vehicles_boats_3.png	K	0	0	0	270.899544661399	271.09954787977
70469.5	100	413	11	0	31	17	1	3	0	0	0	stim002_stimuli_original_animals_birds_2.png	D	0	0	0	271.299555974081	271.499567238148
70569.5	100	414	11	0	31	18	3	1	0	0	0	stim004_stimuli_original_animals_birds_4.png	B	0	0	0	271.699566068128	271.89956953004
70669.5	100	415	11	0	31	19	8	10	0	0	0	stim009_stimuli_original_vehicles_boats_1.png	Q	0	0	0	272.099570310209	272.299522816204
70769.5	100	416	11	0	31	20	12	6	0	0	0	stim013_stimuli_original_vehicles_planes_1.png	G	0	0	0	272.4995843051	272.699588498566
70869.5	100	417	11	0	31	21	9	13	0	0	0	stim010_stimuli_original_vehicles_boats_2.png	U	0	0	0	272.899584646337	273.099587620702
70969.5	100	418	11	0	31	22	7	5	0	0	0	stim008_stimuli_original_animals_fish_4.png	F	0	0	0	273.299615219701	273.499618194532
71069.75	100	419	11	0	31	23	12	15	1	1	0	stim013_stimuli_original_vehicles_planes_1.png	Y	0	0	0	273.699618487153	273.899607808329
71169.75	100	420	11	0	31	24	13	4	0	0	0	stim014_stimuli_original_vehicles_planes_2.png	E	0	0	0	274.099627605639	274.299625216052
71269.75	100	421	11	0	31	25	12	15	1	1	1	stim013_stimuli_original_vehicles_planes_1.png	Y	0	0	0	274.499642331619	274.699627020396
71369.75	100	422	11	0	31	26	1	12	0	0	0	stim002_stimuli_original_animals_birds_2.png	T	0	0	0	274.899638772011	275.099626386538
71469.75	100	423	11	0	31	27	4	14	0	0	0	stim005_stimuli_original_animals_fish_1.png	V	0	0	0	275.299630580004	275.499667931348
71569.75	100	424	11	0	31	28	11	11	0	0	0	stim012_stimuli_original_vehicles_boats_4.png	R	0	0	0	275.699676026125	275.899675343186
71669.75	100	425	11	0	31	29	5	15	0	0	0	stim006_stimuli_original_animals_fish_2.png	Y	0	0	0	276.099683437962	276.299672759138
71769.75	100	426	11	0	31	30	0	8	0	0	0	stim001_stimuli_original_animals_birds_1.png	K	0	0	0	276.499671832658	276.699666761328
71869.75	100	427	11	0	31	31	15	9	0	0	0	stim016_stimuli_original_vehicles_planes_4.png	L	0	0	0	276.899685583543	277.099686607253
71969.75	100	428	11	0	31	32	2	2	0	0	0	stim003_stimuli_original_animals_birds_3.png	C	0	0	0	277.29970981786	277.499726689421
72069.75	100	429	11	0	31	33	10	7	0	0	0	stim011_stimuli_original_vehicles_boats_3.png	J	0	0	0	277.699726982042	277.899728737772
72169.75	100	430	11	0	31	34	14	0	0	0	0	stim015_stimuli_original_vehicles_planes_3.png	A	0	0	0	278.099743171129	278.29974224465
72269.75	100	431	11	0	31	35	6	3	0	0	0	stim007_stimuli_original_animals_fish_3.png	D	0	0	0	278.499753508717	278.699771599378
74482.25	100	432	12	1	17	0	5	15	0	0	0	stim006_stimuli_original_animals_fish_2.png	Y	0	0	0	287.349956992082	287.549958991352
74582.25	100	433	12	1	17	1	2	13	0	0	0	stim003_stimuli_original_animals_birds_3.png	U	0	0	0	287.749965623021	287.949969816487
74682.25	100	434	12	1	17	2	15	10	0	0	0	stim016_stimuli_original_vehicles_planes_4.png	Q	0	0	0	288.149984006304	288.349977471866
74782.25	100	435	12	1	17	3	14	5	0	0	0	stim015_stimuli_original_vehicles_planes_3.png	F	0	0	0	288.549981177785	288.749989760108
74882.25	100	436	12	1	17	4	8	0	0	0	0	stim009_stimuli_original_vehicles_boats_1.png	A	0	0	0	288.950024917256	289.150012287777
74982.25	100	437	12	1	17	5	3	9	0	0	0	stim004_stimuli_original_animals_birds_4.png	L	0	0	0	289.35003452329	289.550053345505
75082.25	100	438	12	1	17	6	0	2	0	0	0	stim001_stimuli_original_animals_birds_1.png	C	0	0	0	289.75002974458	289.950033694506
75182.25	100	439	12	1	17	7	1	7	1	0	0	stim002_stimuli_original_animals_birds_2.png	J	0	0	0	290.150057636667	290.350043544546
75282.25	100	440	12	1	17	8	10	15	0	1	0	stim011_stimuli_original_vehicles_boats_3.png	Y	0	0	0	290.550067974254	290.750085576903
75382.25	100	441	12	1	17	9	1	14	1	0	0	stim002_stimuli_original_animals_birds_2.png	V	0	0	0	290.95007904293	291.150055442471
75482.25	100	442	12	1	17	10	4	15	0	1	1	stim005_stimuli_original_animals_fish_1.png	Y	0	0	0	291.350062073674	291.550064560492
75582.25	100	443	12	1	17	11	11	6	0	0	0	stim012_stimuli_original_vehicles_boats_4.png	G	0	0	0	291.750076800119	291.950099523179
75682.25	100	444	12	1	17	12	13	12	0	0	0	stim014_stimuli_original_vehicles_planes_2.png	T	0	0	0	292.150084943045	292.350112298504
75782.25	100	445	12	1	17	13	12	1	0	0	0	stim013_stimuli_original_vehicles_planes_1.png	B	0	0	0	292.550090160687	292.750124586746
75882.25	100	446	12	1	17	14	7	3	0	0	0	stim008_stimuli_original_animals_fish_4.png	D	0	0	0	292.950131218415	293.150121514685
75982.25	100	447	12	1	17	15	9	11	0	0	0	stim010_stimuli_original_vehicles_boats_2.png	R	0	0	0	293.350558713544	293.550130145624
76082.25	100	448	12	1	17	16	6	4	0	0	0	stim007_stimuli_original_animals_fish_3.png	E	0	0	0	293.750127756037	293.950137069449
76182.25	100	449	12	1	17	17	1	8	0	0	0	stim002_stimuli_original_animals_birds_2.png	K	0	0	0	294.150141506921	294.350146187935
76282.25	100	450	12	1	17	18	8	1	0	0	0	stim009_stimuli_original_vehicles_boats_1.png	B	0	0	0	294.550154038705	294.750156769529
76382.25	100	451	12	1	17	19	4	6	0	0	0	stim005_stimuli_original_animals_fish_1.png	G	0	0	0	294.950166082941	295.150165156461
76482.25	100	452	12	1	17	20	11	9	0	0	0	stim012_stimuli_original_vehicles_boats_4.png	L	0	0	0	295.350179833826	295.55020036269
76582.25	100	453	12	1	17	21	3	7	0	0	0	stim004_stimuli_original_animals_birds_4.png	J	0	0	0	295.750189927407	295.950216063764
76682.25	100	454	12	1	17	22	1	12	0	0	0	stim002_stimuli_original_animals_birds_2.png	T	0	0	0	296.150219038595	296.35019543767
76782.25	100	455	12	1	17	23	12	13	0	0	0	stim013_stimuli_original_vehicles_planes_1.png	U	0	0	0	296.550206701737	296.750204068609
76882.25	100	456	12	1	17	24	6	11	0	0	0	stim007_stimuli_original_animals_fish_3.png	R	0	0	0	296.95022410946	297.150247076526
76982.25	100	457	12	1	17	25	15	4	1	0	0	stim016_stimuli_original_vehicles_planes_4.png	E	0	0	0	297.350254927296	297.550256195012
77082.25	100	458	12	1	17	26	14	1	0	1	0	stim015_stimuli_original_vehicles_planes_3.png	B	0	0	0	297.750259169377	297.950264094397
77182.25	100	459	12	1	17	27	15	10	1	0	0	stim016_stimuli_original_vehicles_planes_4.png	Q	0	0	0	298.150269506965	298.350275651086
77282.25	100	460	12	1	17	28	7	1	0	1	1	stim008_stimuli_original_animals_fish_4.png	B	0	0	0	298.550283013843	298.750717774965
77382.25	100	461	12	1	17	29	2	0	0	0	0	stim003_stimuli_original_animals_birds_3.png	A	0	0	0	298.950270920992	299.150296569802
77482.25	100	462	12	1	17	30	9	3	0	0	0	stim010_stimuli_original_vehicles_boats_2.png	D	f	299.342841413803	1	299.35029027937	299.55030715093
77582.25	100	463	12	1	17	31	0	8	0	0	0	stim001_stimuli_original_animals_birds_1.png	K	0	0	0	299.750315733254	299.950315781869
77682.25	100	464	12	1	17	32	5	14	0	0	0	stim006_stimuli_original_animals_fish_2.png	V	0	0	0	300.150323388632	300.350302713923
77782.25	100	465	12	1	17	33	10	15	0	0	0	stim011_stimuli_original_vehicles_boats_3.png	Y	0	0	0	300.55033957772	300.750325729605
77882.25	100	466	12	1	17	34	13	2	0	0	0	stim014_stimuli_original_vehicles_planes_2.png	C	0	0	0	300.950345526915	301.150337042287
77982.25	100	467	12	1	17	35	15	5	0	0	0	stim016_stimuli_original_vehicles_planes_4.png	F	0	0	0	301.350361715537	301.550343235023
78794.75	100	468	13	0	29	0	12	8	0	0	0	stim013_stimuli_original_vehicles_planes_1.png	K	0	0	0	304.60043632146	304.800439783372
78894.75	100	469	13	0	29	1	10	0	0	0	0	stim011_stimuli_original_vehicles_boats_3.png	A	0	0	0	305.000438613351	305.200462799054
78994.75	100	470	13	0	29	2	14	15	0	0	0	stim015_stimuli_original_vehicles_planes_3.png	Y	0	0	0	305.400466504972	305.600469966885
79094.75	100	471	13	0	29	3	0	9	0	0	0	stim001_stimuli_original_animals_birds_1.png	L	0	0	0	305.800476355013	306.000463481527
79194.75	100	472	13	0	29	4	6	4	0	0	0	stim007_stimuli_original_animals_fish_3.png	E	0	0	0	306.200486204587	306.4009429086
79294.75	100	473	13	0	29	5	7	13	0	0	0	stim008_stimuli_original_animals_fish_4.png	U	0	0	0	306.600500443019	306.8005004921
79394.75	100	474	13	0	29	6	14	7	1	0	0	stim015_stimuli_original_vehicles_planes_3.png	J	0	0	0	307.000494933221	307.200512292329
79494.75	100	475	13	0	29	7	1	11	0	0	0	stim002_stimuli_original_animals_birds_2.png	R	0	0	0	307.40052331239	307.600525068119
79594.75	100	476	13	0	29	8	14	12	1	0	1	stim015_stimuli_original_vehicles_planes_3.png	T	0	0	0	307.800509269349	308.000503222458
79694.75	100	477	13	0	29	9	2	2	0	0	0	stim003_stimuli_original_animals_birds_3.png	C	0	0	0	308.200521557126	308.400513560046
79794.75	100	478	13	0	29	10	4	5	0	0	0	stim005_stimuli_original_animals_fish_1.png	F	f	308.59314983245	1	308.600554325152	308.800526091829
79894.75	100	479	13	0	29	11	5	3	0	0	0	stim006_stimuli_original_animals_fish_2.png	D	0	0	0	309.000568076037	309.200551545713
79994.75	100	480	13	0	29	12	13	11	0	1	0	stim014_stimuli_original_vehicles_planes_2.png	R	0	0	0	309.400559396483	309.600576999597
80094.75	100	481	13	0	29	13	11	14	0	0	0	stim012_stimuli_original_vehicles_boats_4.png	V	0	0	0	309.800567295868	310.000589774922
80194.75	100	482	13	0	29	14	3	11	0	1	0	stim004_stimuli_original_animals_birds_4.png	R	0	0	0	310.200610791333	310.400604744907
80294.75	100	483	13	0	29	15	8	6	0	0	0	stim009_stimuli_original_vehicles_boats_1.png	G	0	0	0	310.600604793523	310.8005953338
80394.75	100	484	13	0	29	16	15	10	0	0	0	stim016_stimuli_original_vehicles_planes_4.png	Q	0	0	0	311.000600014813	311.200604696292
80494.75	100	485	13	0	29	17	9	1	0	0	0	stim010_stimuli_original_vehicles_boats_2.png	B	0	0	0	311.400612303056	311.600823978428
80594.75	100	486	13	0	29	18	1	9	0	0	0	stim002_stimuli_original_animals_birds_2.png	L	0	0	0	311.800643364433	312.000626590103
80694.75	100	487	13	0	29	19	10	15	0	0	0	stim011_stimuli_original_vehicles_boats_3.png	Y	0	0	0	312.200631759129	312.400652043987
80794.75	100	488	13	0	29	20	6	8	0	0	0	stim007_stimuli_original_animals_fish_3.png	K	0	0	0	312.600658919197	312.80064677773
80894.75	100	489	13	0	29	21	11	3	1	0	0	stim012_stimuli_original_vehicles_boats_4.png	D	0	0	0	313.000667306595	313.200673206709
80994.75	100	490	13	0	29	22	14	11	0	0	0	stim015_stimuli_original_vehicles_planes_3.png	R	0	0	0	313.400679106824	313.60068330029
81094.75	100	491	13	0	29	23	11	13	1	0	1	stim012_stimuli_original_vehicles_boats_4.png	U	0	0	0	313.800670670811	314.00066243019
81194.75	100	492	13	0	29	24	3	5	0	0	0	stim004_stimuli_original_animals_birds_4.png	F	f	314.392445418518	1	314.200681495946	314.400692028459
81294.75	100	493	13	0	29	25	5	4	0	0	0	stim006_stimuli_original_animals_fish_2.png	E	0	0	0	314.600695490837	314.800698221661
81394.75	100	494	13	0	29	26	2	2	0	0	0	stim003_stimuli_original_animals_birds_3.png	C	0	0	0	315.000702171121	315.200706852134
81494.75	100	495	13	0	29	27	12	14	0	1	0	stim013_stimuli_original_vehicles_planes_1.png	V	0	0	0	315.40073469514	315.600738889072
81594.75	100	496	13	0	29	28	11	1	0	0	0	stim012_stimuli_original_vehicles_boats_4.png	B	0	0	0	315.800748446025	316.000747031998
81694.75	100	497	13	0	29	29	7	14	0	1	0	stim008_stimuli_original_animals_fish_4.png	V	0	0	0	316.200735378079	316.40075834468
81795	100	498	13	0	29	30	13	7	0	0	0	stim014_stimuli_original_vehicles_planes_2.png	J	0	0	0	316.60075132316	316.800757954828
81895	100	499	13	0	29	31	4	6	0	0	0	stim005_stimuli_original_animals_fish_1.png	G	0	0	0	317.000758003443	317.200755857863
81995	100	500	13	0	29	32	9	0	0	0	0	stim010_stimuli_original_vehicles_boats_2.png	A	0	0	0	317.400768097024	317.600777410902
82095	100	501	13	0	29	33	15	14	0	0	0	stim016_stimuli_original_vehicles_planes_4.png	V	0	0	0	317.800777947064	318.000780677889
82195	100	502	13	0	29	34	0	10	0	0	0	stim001_stimuli_original_animals_birds_1.png	Q	0	0	0	318.200790478848	318.400792478118
82295	100	503	13	0	29	35	8	12	0	0	0	stim009_stimuli_original_vehicles_boats_1.png	T	0	0	0	318.600821784232	318.800810861401
83195	100	504	14	1	0	0	9	4	0	0	0	stim010_stimuli_original_vehicles_boats_2.png	E	0	0	0	322.20093505783	322.400907556061
83295	100	505	14	1	0	1	13	3	0	0	0	stim014_stimuli_original_vehicles_planes_2.png	D	0	0	0	322.600926622283	322.800915943459
83395	100	506	14	1	0	2	4	6	0	0	0	stim005_stimuli_original_animals_fish_1.png	G	0	0	0	323.000935252756	323.200945785735
83495	100	507	14	1	0	3	10	1	0	0	0	stim011_stimuli_original_vehicles_boats_3.png	B	0	0	0	323.400948272552	323.600970995612
83595	100	508	14	1	0	4	6	5	0	0	0	stim007_stimuli_original_animals_fish_3.png	F	0	0	0	323.800963242073	324.000940616708
83695	100	509	14	1	0	5	7	11	0	0	0	stim008_stimuli_original_animals_fish_4.png	R	0	0	0	324.200956025627	324.400955099147
83795	100	510	14	1	0	6	1	0	0	0	0	stim002_stimuli_original_animals_birds_2.png	A	0	0	0	324.600979284849	324.801210708916
83895	100	511	14	1	0	7	8	8	0	1	0	stim009_stimuli_original_vehicles_boats_1.png	K	0	0	0	325.000998399686	325.200996254105
83995	100	512	14	1	0	8	15	9	0	0	0	stim016_stimuli_original_vehicles_planes_4.png	L	0	0	0	325.400977042038	325.601006104145
84095	100	513	14	1	0	9	14	8	0	1	1	stim015_stimuli_original_vehicles_planes_3.png	K	0	0	0	325.801012979355	326.001005957834
84195	100	514	14	1	0	10	6	15	1	0	0	stim007_stimuli_original_animals_fish_3.png	Y	0	0	0	326.201009907294	326.401016295422
84295	100	515	14	1	0	11	5	10	0	0	0	stim006_stimuli_original_animals_fish_2.png	Q	f	326.792797576636	1	326.601034386083	326.801039310638
84395	100	516	14	1	0	12	6	12	1	0	0	stim007_stimuli_original_animals_fish_3.png	T	0	0	0	327.001048136968	327.201050623786
84495	100	517	14	1	0	13	12	2	0	0	0	stim013_stimuli_original_vehicles_planes_1.png	C	0	0	0	327.401032874361	327.60105754761
84595	100	518	14	1	0	14	11	8	0	0	0	stim012_stimuli_original_vehicles_boats_4.png	K	0	0	0	327.801045649685	328.001039359719
84695	100	519	14	1	0	15	2	13	0	0	0	stim003_stimuli_original_animals_birds_3.png	U	0	0	0	328.20107524842	328.401068957988
84795	100	520	14	1	0	16	3	7	0	0	0	stim004_stimuli_original_animals_birds_4.png	J	0	0	0	328.601074127015	328.801100506913
84895	100	521	14	1	0	17	0	14	0	0	0	stim001_stimuli_original_animals_birds_1.png	V	0	0	0	329.001090315636	329.201102554798
84995	100	522	14	1	0	18	14	0	0	0	0	stim015_stimuli_original_vehicles_planes_3.png	A	0	0	0	329.401109430473	329.601114355493
85095	100	523	14	1	0	19	7	3	0	0	0	stim008_stimuli_original_animals_fish_4.png	D	0	0	0	329.801098312717	330.00112664327
85195	100	524	14	1	0	20	13	2	0	0	0	stim014_stimuli_original_vehicles_planes_2.png	C	0	0	0	330.201115964446	330.40111576952
85295	100	525	14	1	0	21	8	11	0	0	0	stim009_stimuli_original_vehicles_boats_1.png	R	0	0	0	330.601117281243	330.801121962257
85395	100	526	14	1	0	22	2	12	0	0	0	stim003_stimuli_original_animals_birds_3.png	T	0	0	0	331.001131519675	331.201129130088
85495	100	527	14	1	0	23	12	6	0	1	0	stim013_stimuli_original_vehicles_planes_1.png	G	0	0	0	331.401140638161	331.601140686776
85595	100	528	14	1	0	24	10	5	0	0	0	stim011_stimuli_original_vehicles_boats_3.png	F	0	0	0	331.801175112836	332.001163945999
85695	100	529	14	1	0	25	15	6	0	1	1	stim016_stimuli_original_vehicles_planes_4.png	G	0	0	0	332.201163263526	332.401168432087
85795	100	530	14	1	0	26	8	14	1	0	0	stim009_stimuli_original_vehicles_boats_1.png	V	f	332.792963123415	1	332.601190424059	332.801179501228
85895	100	531	14	1	0	27	9	15	0	0	0	stim010_stimuli_original_vehicles_boats_2.png	Y	0	0	0	333.00121343974	333.201202029362
85995	100	532	14	1	0	28	8	8	1	0	0	stim009_stimuli_original_vehicles_boats_1.png	K	0	0	0	333.401219632477	333.601204564795
86095	100	533	14	1	0	29	0	1	0	0	0	stim001_stimuli_original_animals_birds_1.png	B	0	0	0	333.801215341315	334.001219778787
86195	100	534	14	1	0	30	11	7	0	0	0	stim012_stimuli_original_vehicles_boats_4.png	J	0	0	0	334.201215438545	334.401222558226
86295	100	535	14	1	0	31	5	6	0	0	0	stim006_stimuli_original_animals_fish_2.png	G	0	0	0	334.601228214335	334.801233383361
86395	100	536	14	1	0	32	1	10	0	0	0	stim002_stimuli_original_animals_birds_2.png	Q	0	0	0	335.001235382166	335.201241770294
86495	100	537	14	1	0	33	6	4	0	0	0	stim007_stimuli_original_animals_fish_3.png	E	0	0	0	335.401456371415	335.601262591314
86595	100	538	14	1	0	34	3	13	0	0	0	stim004_stimuli_original_animals_birds_4.png	U	0	0	0	335.801286045928	336.001254155766
86695	100	539	14	1	0	35	4	9	0	0	0	stim005_stimuli_original_animals_fish_1.png	L	0	0	0	336.201264688279	336.401264249347
87824.25	100	540	15	0	37	0	13	12	0	0	0	stim014_stimuli_original_vehicles_planes_2.png	T	0	0	0	340.718082906678	340.918066620361
87924.25	100	541	15	0	37	1	6	14	0	0	0	stim007_stimuli_original_animals_fish_3.png	V	0	0	0	341.118090318516	341.318098656833
88024.25	100	542	15	0	37	2	1	6	0	0	0	stim002_stimuli_original_animals_birds_2.png	G	0	0	0	341.518104556948	341.718083638232
88124.25	100	543	15	0	37	3	7	0	0	0	0	stim008_stimuli_original_animals_fish_4.png	A	0	0	0	341.918115382083	342.118080566172
88224.25	100	544	15	0	37	4	0	3	0	0	0	stim001_stimuli_original_animals_birds_1.png	D	0	0	0	342.318124500569	342.518127962947
88324.25	100	545	15	0	37	5	5	7	0	1	0	stim006_stimuli_original_animals_fish_2.png	J	0	0	0	342.718129230663	342.918135130778
88424.25	100	546	15	0	37	6	12	1	0	0	0	stim013_stimuli_original_vehicles_planes_1.png	B	f	343.309885936324	0	343.118116650265	343.31811986817
88524.25	100	547	15	0	37	7	10	7	0	1	0	stim011_stimuli_original_vehicles_boats_3.png	J	0	0	0	343.518131132238	343.718184087891
88624.25	100	548	15	0	37	8	2	9	0	0	0	stim003_stimuli_original_animals_birds_3.png	L	0	0	0	343.918152928818	344.11815127125
88724.25	100	549	15	0	37	9	15	4	0	0	0	stim016_stimuli_original_vehicles_planes_4.png	E	0	0	0	344.318613826297	344.518180137966
88824.25	100	550	15	0	37	10	13	8	1	0	0	stim014_stimuli_original_vehicles_planes_2.png	K	0	0	0	344.718172141351	344.918201691005
88924.25	100	551	15	0	37	11	11	13	0	0	0	stim012_stimuli_original_vehicles_boats_4.png	U	0	0	0	345.118190768175	345.318190573249
89024.25	100	552	15	0	37	12	13	7	1	0	1	stim014_stimuli_original_vehicles_planes_2.png	J	0	0	0	345.518214027397	345.718216758221
89124.25	100	553	15	0	37	13	4	10	0	0	0	stim005_stimuli_original_animals_fish_1.png	Q	0	0	0	345.918225828093	346.118205396924
89224.25	100	554	15	0	37	14	9	5	0	0	0	stim010_stimuli_original_vehicles_boats_2.png	F	0	0	0	346.318234215025	346.518221585546
89324.25	100	555	15	0	37	15	3	2	0	0	0	stim004_stimuli_original_animals_birds_4.png	C	0	0	0	346.718225291464	346.918247770984
89424.25	100	556	15	0	37	16	14	11	0	0	0	stim015_stimuli_original_vehicles_planes_3.png	R	0	0	0	347.118233922403	347.318264691159
89524.25	100	557	15	0	37	17	8	15	0	0	0	stim009_stimuli_original_vehicles_boats_1.png	Y	0	0	0	347.518271810375	347.71825406095
89624.25	100	558	15	0	37	18	15	8	0	0	0	stim016_stimuli_original_vehicles_planes_4.png	K	0	0	0	347.918282391969	348.118279514834
89724.25	100	559	15	0	37	19	11	14	0	0	0	stim012_stimuli_original_vehicles_boats_4.png	V	0	0	0	348.318295167293	348.518266934436
89824.25	100	560	15	0	37	20	2	3	0	0	0	stim003_stimuli_original_animals_birds_3.png	D	0	0	0	348.71828063624	348.918307260145
89924.25	100	561	15	0	37	21	5	9	0	0	0	stim006_stimuli_original_animals_fish_2.png	L	0	0	0	349.118311454076	349.318299068138
90024.25	100	562	15	0	37	22	10	4	0	0	0	stim011_stimuli_original_vehicles_boats_3.png	E	0	0	0	349.518587543629	349.718332323711
90124.25	100	563	15	0	37	23	7	13	0	1	0	stim008_stimuli_original_animals_fish_4.png	U	0	0	0	349.918356997427	350.118333640508
90224.25	100	564	15	0	37	24	13	11	0	0	0	stim014_stimuli_original_vehicles_planes_2.png	R	0	0	0	350.318319791928	350.518340320792
90324.25	100	565	15	0	37	25	8	13	0	1	0	stim009_stimuli_original_vehicles_boats_1.png	U	0	0	0	350.71835865546	350.918353584129
90424.25	100	566	15	0	37	26	4	15	0	0	0	stim005_stimuli_original_animals_fish_1.png	Y	0	0	0	351.118358996697	351.318328813184
90524.25	100	567	15	0	37	27	9	2	0	0	0	stim010_stimuli_original_vehicles_boats_2.png	C	0	0	0	351.518336663954	351.718351340853
90624.25	100	568	15	0	37	28	7	10	1	0	0	stim008_stimuli_original_animals_fish_4.png	Q	0	0	0	351.918358460534	352.11835875269
90724.25	100	569	15	0	37	29	1	12	0	0	0	stim002_stimuli_original_animals_birds_2.png	T	0	0	0	352.318367578555	352.518371284474
90824.25	100	570	15	0	37	30	7	5	1	0	1	stim008_stimuli_original_animals_fish_4.png	F	0	0	0	352.718374015298	352.918406490702
90924.25	100	571	15	0	37	31	3	0	0	0	0	stim004_stimuli_original_animals_birds_4.png	A	0	0	0	353.118398737628	353.318416096736
91024.25	100	572	15	0	37	32	0	7	0	0	0	stim001_stimuli_original_animals_birds_1.png	J	f	353.510950944386	1	353.51844272064	353.718416925985
91124.25	100	573	15	0	37	33	6	1	0	0	0	stim007_stimuli_original_animals_fish_3.png	B	0	0	0	353.918438429944	354.118440916762
91224.25	100	574	15	0	37	34	14	6	0	0	0	stim015_stimuli_original_vehicles_planes_3.png	G	0	0	0	354.318428287283	354.518431749661
91324.25	100	575	15	0	37	35	12	13	0	0	0	stim013_stimuli_original_vehicles_planes_1.png	U	0	0	0	354.718437162228	354.918899229728
92536.75	100	576	16	1	34	0	8	10	0	0	0	stim009_stimuli_original_vehicles_boats_1.png	Q	0	0	0	359.568587982561	359.768588275183
92636.75	100	577	16	1	34	1	0	15	0	0	0	stim001_stimuli_original_animals_birds_1.png	Y	0	0	0	359.96859953925	360.168601050507
92736.75	100	578	16	1	34	2	7	11	0	0	0	stim008_stimuli_original_animals_fish_4.png	R	0	0	0	360.36860548798	360.568582375068
92836.75	100	579	16	1	34	3	6	13	0	0	0	stim007_stimuli_original_animals_fish_3.png	U	0	0	0	360.768592663575	360.96861928748
92936.75	100	580	16	1	34	4	15	1	1	0	0	stim016_stimuli_original_vehicles_planes_4.png	B	0	0	0	361.168630308006	361.368634013925
93036.75	100	581	16	1	34	5	3	12	0	0	0	stim004_stimuli_original_animals_birds_4.png	T	0	0	0	361.568638694938	361.768642644398
93136.75	100	582	16	1	34	6	15	0	1	0	0	stim016_stimuli_original_vehicles_planes_4.png	A	0	0	0	361.968635866884	362.168660296593
93236.75	100	583	16	1	34	7	5	7	0	0	0	stim006_stimuli_original_animals_fish_2.png	J	0	0	0	362.368642547168	362.568647228181
93336.75	100	584	16	1	34	8	14	10	0	1	0	stim015_stimuli_original_vehicles_planes_3.png	Q	0	0	0	362.768663856201	362.968678533565
93436.75	100	585	16	1	34	9	12	5	0	0	0	stim013_stimuli_original_vehicles_planes_1.png	F	0	0	0	363.168685896322	363.368687164038
93536.75	100	586	16	1	34	10	2	10	0	1	1	stim003_stimuli_original_animals_birds_3.png	Q	0	0	0	363.568676972762	363.768682385329
93636.75	100	587	16	1	34	11	1	4	0	0	0	stim002_stimuli_original_animals_birds_2.png	E	0	0	0	363.968688773457	364.169120120816
93736.75	100	588	16	1	34	12	13	6	0	0	0	stim014_stimuli_original_vehicles_planes_2.png	G	0	0	0	364.368701061234	364.568710618652
93836.75	100	589	16	1	34	13	9	14	0	0	0	stim010_stimuli_original_vehicles_boats_2.png	V	0	0	0	364.768716762774	364.968728026841
93936.75	100	590	16	1	34	14	15	3	0	0	0	stim016_stimuli_original_vehicles_planes_4.png	D	0	0	0	365.168733439408	365.368744215462
94036.75	100	591	16	1	34	15	4	2	0	0	0	stim005_stimuli_original_animals_fish_1.png	C	0	0	0	365.568749384489	365.768750164658
94136.75	100	592	16	1	34	16	11	8	0	0	0	stim012_stimuli_original_vehicles_boats_4.png	K	0	0	0	365.968757283874	366.168761964887
94236.75	100	593	16	1	34	17	10	9	0	0	0	stim011_stimuli_original_vehicles_boats_3.png	L	0	0	0	366.368742508814	366.568760843482
94336.75	100	594	16	1	34	18	9	10	0	0	0	stim010_stimuli_original_vehicles_boats_2.png	Q	0	0	0	366.768800145481	366.968783615157
94436.75	100	595	16	1	34	19	8	11	0	0	0	stim009_stimuli_original_vehicles_boats_1.png	R	0	0	0	367.168759283144	367.368760794867
94536.75	100	596	16	1	34	20	2	4	0	0	0	stim003_stimuli_original_animals_birds_3.png	E	0	0	0	367.568785468116	367.768802583683
94636.75	100	597	16	1	34	21	3	15	0	0	0	stim004_stimuli_original_animals_birds_4.png	Y	0	0	0	367.968810677994	368.168833888602
94736.75	100	598	16	1	34	22	14	9	0	0	0	stim015_stimuli_original_vehicles_planes_3.png	L	0	0	0	368.36880199844	368.568821064197
94836.75	100	599	16	1	34	23	6	13	0	0	0	stim007_stimuli_original_animals_fish_3.png	U	0	0	0	368.768812092021	368.968803119846
94936.75	100	600	16	1	34	24	4	1	0	0	0	stim005_stimuli_original_animals_fish_1.png	B	0	0	0	369.168814627919	369.368821503129
95036.75	100	601	16	1	34	25	10	2	1	0	0	stim011_stimuli_original_vehicles_boats_3.png	C	0	0	0	369.568834229838	369.768827208318
95136.75	100	602	16	1	34	26	5	12	0	0	0	stim006_stimuli_original_animals_fish_2.png	T	0	0	0	369.968833352439	370.168837789446
95236.75	100	603	16	1	34	27	10	14	1	0	0	stim011_stimuli_original_vehicles_boats_3.png	V	0	0	0	370.368878067005	370.568858367391
95336.75	100	604	16	1	34	28	7	5	0	0	0	stim008_stimuli_original_animals_fish_4.png	F	0	0	0	370.768859635107	370.968863341026
95436.75	100	605	16	1	34	29	0	15	0	1	0	stim001_stimuli_original_animals_birds_1.png	Y	0	0	0	371.168869728688	371.368873434607
95536.75	100	606	16	1	34	30	12	3	0	0	0	stim013_stimuli_original_vehicles_planes_1.png	D	0	0	0	371.568885673769	371.768889136147
95636.75	100	607	16	1	34	31	1	15	0	1	1	stim002_stimuli_original_animals_birds_2.png	Y	0	0	0	371.968918685801	372.168920441065
95737	100	608	16	1	34	32	13	6	0	0	0	stim014_stimuli_original_vehicles_planes_2.png	G	0	0	0	372.36892926693	372.568932972848
95837	100	609	16	1	34	33	11	7	0	0	0	stim012_stimuli_original_vehicles_boats_4.png	J	0	0	0	372.768939848524	372.968949405476
95937	100	610	16	1	34	34	15	0	0	0	0	stim016_stimuli_original_vehicles_planes_4.png	A	0	0	0	373.168951404747	373.368968276307
96037	100	611	16	1	34	35	10	8	0	0	0	stim011_stimuli_original_vehicles_boats_3.png	K	0	0	0	373.568962229881	373.768963985611
98120.25	100	612	17	0	16	0	7	2	0	0	0	stim008_stimuli_original_animals_fish_4.png	C	0	0	0	381.902498900425	382.102505288087
98220.25	100	613	17	0	16	1	11	13	0	0	0	stim012_stimuli_original_vehicles_boats_4.png	U	0	0	0	382.302523378748	382.502539762761
98320.25	100	614	17	0	16	2	15	14	0	0	0	stim016_stimuli_original_vehicles_planes_4.png	V	0	0	0	382.702521769796	382.902541810647
98420.25	100	615	17	0	16	3	1	4	0	0	0	stim002_stimuli_original_animals_birds_2.png	E	0	0	0	383.102548442315	383.302556049544
98520.25	100	616	17	0	16	4	14	3	0	0	0	stim015_stimuli_original_vehicles_planes_3.png	D	0	0	0	383.50253854366	383.702533228789
98620.25	100	617	17	0	16	5	13	0	0	0	0	stim014_stimuli_original_vehicles_planes_2.png	A	0	0	0	383.902569605038	384.102577943355
98720.25	100	618	17	0	16	6	0	11	0	1	0	stim001_stimuli_original_animals_birds_1.png	R	0	0	0	384.302586281672	384.502586330287
98820.25	100	619	17	0	16	7	10	12	0	0	0	stim011_stimuli_original_vehicles_boats_3.png	T	0	0	0	384.702602470759	384.90258374624
98920.25	100	620	17	0	16	8	13	11	1	1	0	stim014_stimuli_original_vehicles_planes_2.png	R	0	0	0	385.1025889148	385.302607493009
99020.25	100	621	17	0	16	9	6	5	0	0	0	stim007_stimuli_original_animals_fish_3.png	F	0	0	0	385.502599252388	385.702600764111
99120.25	100	622	17	0	16	10	13	1	1	0	1	stim014_stimuli_original_vehicles_planes_2.png	B	0	0	0	385.902608614415	386.102637432981
99220.25	100	623	17	0	16	11	8	11	0	0	0	stim009_stimuli_original_vehicles_boats_1.png	R	0	0	0	386.302613832057	386.502619001083
99320.25	100	624	17	0	16	12	2	9	0	0	0	stim003_stimuli_original_animals_birds_3.png	L	0	0	0	386.702624901198	386.902649574447
99420.25	100	625	17	0	16	13	9	7	0	0	0	stim010_stimuli_original_vehicles_boats_2.png	J	0	0	0	387.102643772028	387.302685999777
99520.25	100	626	17	0	16	14	5	6	0	0	0	stim006_stimuli_original_animals_fish_2.png	G	0	0	0	387.502889385447	387.702661472373
99620.25	100	627	17	0	16	15	3	8	0	0	0	stim004_stimuli_original_animals_birds_4.png	K	0	0	0	387.902665665839	388.1026837565
99720.25	100	628	17	0	16	16	4	15	0	0	0	stim005_stimuli_original_animals_fish_1.png	Y	0	0	0	388.30269453302	388.502694581635
99820.25	100	629	17	0	16	17	12	10	0	0	0	stim013_stimuli_original_vehicles_planes_1.png	Q	0	0	0	388.702686828561	388.902704188135
99920.25	100	630	17	0	16	18	10	12	0	0	0	stim011_stimuli_original_vehicles_boats_3.png	T	0	0	0	389.102680343203	389.302684049122
100020.25	100	631	17	0	16	19	15	4	0	0	0	stim016_stimuli_original_vehicles_planes_4.png	E	0	0	0	389.50269945804	389.702701213304
100120.25	100	632	17	0	16	20	8	3	0	0	0	stim009_stimuli_original_vehicles_boats_1.png	D	0	0	0	389.902713452931	390.102713501547
100220.25	100	633	17	0	16	21	6	5	0	0	0	stim007_stimuli_original_animals_fish_3.png	F	0	0	0	390.302756460849	390.502757484559
100320.25	100	634	17	0	16	22	7	9	0	0	0	stim008_stimuli_original_animals_fish_4.png	L	0	0	0	390.702761678025	390.90276562795
100420.25	100	635	17	0	16	23	9	2	0	0	0	stim010_stimuli_original_vehicles_boats_2.png	C	0	0	0	391.102753730025	391.30274475785
100520.25	100	636	17	0	16	24	11	8	0	0	0	stim012_stimuli_original_vehicles_boats_4.png	K	0	0	0	391.502746025566	391.702788497321
100620.25	100	637	17	0	16	25	1	13	0	1	0	stim002_stimuli_original_animals_birds_2.png	U	0	0	0	391.902767090593	392.102761775721
100720.25	100	638	17	0	16	26	5	6	0	0	0	stim006_stimuli_original_animals_fish_2.png	G	0	0	0	392.302783767227	392.502783328295
100820.25	100	639	17	0	16	27	11	13	1	1	0	stim012_stimuli_original_vehicles_boats_4.png	U	0	0	0	392.702793861274	392.903193513397
100920.25	100	640	17	0	16	28	12	10	0	0	0	stim013_stimuli_original_vehicles_planes_1.png	Q	0	0	0	393.102819558699	393.302825702354
101020.25	100	641	17	0	16	29	11	0	1	0	1	stim012_stimuli_original_vehicles_boats_4.png	A	0	0	0	393.502830871381	393.702831895556
101120.25	100	642	17	0	16	30	0	13	0	0	0	stim001_stimuli_original_animals_birds_1.png	U	f	394.094606350176	1	393.902839258313	394.102822727989
101220.25	100	643	17	0	16	31	3	14	0	0	0	stim004_stimuli_original_animals_birds_4.png	V	0	0	0	394.302825458813	394.502840623725
101320.25	100	644	17	0	16	32	4	1	0	0	0	stim005_stimuli_original_animals_fish_1.png	B	0	0	0	394.702861152589	394.902824630029
101420.25	100	645	17	0	16	33	14	15	0	0	0	stim015_stimuli_original_vehicles_planes_3.png	Y	0	0	0	395.102876366116	395.302855934948
101520.25	100	646	17	0	16	34	13	11	0	0	0	stim014_stimuli_original_vehicles_planes_2.png	R	0	0	0	395.502856227569	395.702873830684
101620.25	100	647	17	0	16	35	2	7	0	0	0	stim003_stimuli_original_animals_birds_3.png	J	0	0	0	395.902893140446	396.102893920615
103191.25	100	648	18	1	9	0	0	13	0	0	0	stim001_stimuli_original_animals_birds_1.png	U	0	0	0	402.186399139464	402.386387241539
103291.25	100	649	18	1	9	1	13	5	0	0	0	stim014_stimuli_original_vehicles_planes_2.png	F	0	0	0	402.586391679011	402.786391240079
103391.25	100	650	18	1	9	2	6	0	0	0	0	stim007_stimuli_original_animals_fish_3.png	A	0	0	0	402.986411037389	403.186400114559
103491.25	100	651	18	1	9	3	2	12	0	0	0	stim003_stimuli_original_animals_birds_3.png	T	0	0	0	403.386412597727	403.586836630944
103591.25	100	652	18	1	9	4	12	8	0	0	0	stim013_stimuli_original_vehicles_planes_1.png	K	0	0	0	403.786439514253	403.986450046767
103691.25	100	653	18	1	9	5	11	7	0	0	0	stim012_stimuli_original_vehicles_boats_4.png	J	0	0	0	404.186423032545	404.386428689118
103791.25	100	654	18	1	9	6	10	10	0	0	0	stim011_stimuli_original_vehicles_boats_3.png	Q	0	0	0	404.586429225747	404.786443415098
103891.25	100	655	18	1	9	7	5	15	0	1	0	stim006_stimuli_original_animals_fish_2.png	Y	0	0	0	404.986457604915	405.186445219442
103991.25	100	656	18	1	9	8	8	3	0	0	0	stim009_stimuli_original_vehicles_boats_1.png	D	0	0	0	405.386457458604	405.586469697766
104091.25	100	657	18	1	9	9	11	15	1	1	1	stim012_stimuli_original_vehicles_boats_4.png	Y	0	0	0	405.786494859029	405.986460043117
104191.25	100	658	18	1	9	10	14	11	0	0	0	stim015_stimuli_original_vehicles_planes_3.png	R	0	0	0	406.186509585008	406.386507439427
104291.25	100	659	18	1	9	11	11	2	1	0	0	stim012_stimuli_original_vehicles_boats_4.png	C	0	0	0	406.586513583548	406.786515826825
104391.25	100	660	18	1	9	12	15	1	0	0	0	stim016_stimuli_original_vehicles_planes_4.png	B	0	0	0	406.986561955418	407.186501295771
104491.25	100	661	18	1	9	13	9	4	0	0	0	stim010_stimuli_original_vehicles_boats_2.png	E	0	0	0	407.386510365177	407.586517484393
104591.25	100	662	18	1	9	14	3	15	0	0	0	stim004_stimuli_original_animals_birds_4.png	Y	0	0	0	407.78652289696	407.986568294466
104691.25	100	663	18	1	9	15	4	14	0	0	0	stim005_stimuli_original_animals_fish_1.png	V	0	0	0	408.186530552804	408.38652865123
104791.25	100	664	18	1	9	16	1	6	0	0	0	stim002_stimuli_original_animals_birds_2.png	G	0	0	0	408.586536257993	408.786541426554
104891.25	100	665	18	1	9	17	7	9	0	0	0	stim008_stimuli_original_animals_fish_4.png	L	0	0	0	408.986587555148	409.186569806188
104991.25	100	666	18	1	9	18	9	7	0	0	0	stim010_stimuli_original_vehicles_boats_2.png	J	0	0	0	409.386589115951	409.586593309417
105091.25	100	667	18	1	9	19	6	1	0	0	0	stim007_stimuli_original_animals_fish_3.png	B	0	0	0	409.786601647735	409.986629246734
105191.25	100	668	18	1	9	20	14	4	0	0	0	stim015_stimuli_original_vehicles_planes_3.png	E	0	0	0	410.186610766221	410.386627150234
105291.25	100	669	18	1	9	21	15	3	0	0	0	stim016_stimuli_original_vehicles_planes_4.png	D	0	0	0	410.586604280863	410.786620908417
105391.25	100	670	18	1	9	22	4	9	0	0	0	stim005_stimuli_original_animals_fish_1.png	L	0	0	0	410.98663241649	411.186639779247
105491.25	100	671	18	1	9	23	1	15	0	0	0	stim002_stimuli_original_animals_birds_2.png	Y	0	0	0	411.386628856882	411.586631099693
105591.25	100	672	18	1	9	24	2	11	0	1	0	stim003_stimuli_original_animals_birds_3.png	R	0	0	0	411.786637487356	411.986649482977
105691.25	100	673	18	1	9	25	11	14	0	0	0	stim012_stimuli_original_vehicles_boats_4.png	V	0	0	0	412.186673912685	412.386672254652
105791.25	100	674	18	1	9	26	15	11	1	1	1	stim016_stimuli_original_vehicles_planes_4.png	R	0	0	0	412.586680592969	412.786666500848
105891.25	100	675	18	1	9	27	3	8	0	0	0	stim004_stimuli_original_animals_birds_4.png	K	0	0	0	412.986668012571	413.186693173833
105991.25	100	676	18	1	9	28	15	5	1	0	0	stim016_stimuli_original_vehicles_planes_4.png	F	0	0	0	413.386699073948	413.586706680711
106091.25	100	677	18	1	9	29	10	10	0	0	0	stim011_stimuli_original_vehicles_boats_3.png	Q	0	0	0	413.786711605731	413.9867182374
106191.5	100	678	18	1	9	30	7	11	0	0	0	stim008_stimuli_original_animals_fish_4.png	R	0	0	0	414.187136906665	414.386707850732
106291.25	100	679	18	1	9	31	8	12	0	0	0	stim009_stimuli_original_vehicles_boats_1.png	T	0	0	0	414.586709606461	414.786712093279
106391.25	100	680	18	1	9	32	12	2	0	0	0	stim013_stimuli_original_vehicles_planes_1.png	C	0	0	0	414.986721406691	415.186714141164
106491.25	100	681	18	1	9	33	0	6	0	0	0	stim001_stimuli_original_animals_birds_1.png	G	0	0	0	415.386731744278	415.586732768454
106591.25	100	682	18	1	9	34	5	13	0	0	0	stim006_stimuli_original_animals_fish_2.png	U	0	0	0	415.786742081866	415.986735791434
106691.25	100	683	18	1	9	35	13	0	0	0	0	stim014_stimuli_original_vehicles_planes_2.png	A	0	0	0	416.186752662994	416.386766852811
109503.75	100	684	19	0	13	0	14	12	0	0	0	stim015_stimuli_original_vehicles_planes_3.png	T	0	0	0	427.437053279951	427.637078928761
109603.75	100	685	19	0	13	1	9	3	0	0	0	stim010_stimuli_original_vehicles_boats_2.png	D	0	0	0	427.837085316889	428.037089753896
109703.75	100	686	19	0	13	2	12	15	0	0	0	stim013_stimuli_original_vehicles_planes_1.png	Y	0	0	0	428.237076880876	428.437096434645
109804	100	687	19	0	13	3	13	8	0	0	0	stim014_stimuli_original_vehicles_planes_2.png	K	0	0	0	428.637109404895	428.83710920997
109904	100	688	19	0	13	4	6	4	0	0	0	stim007_stimuli_original_animals_fish_3.png	E	f	429.0296855052	0	429.037117792293	429.237101993058
110004	100	689	19	0	13	5	3	6	0	1	0	stim004_stimuli_original_animals_birds_4.png	G	0	0	0	429.437103748787	429.637100871652
110104	100	690	19	0	13	6	10	11	0	0	0	stim011_stimuli_original_vehicles_boats_3.png	R	0	0	0	429.83758512605	430.037123399787
110204	100	691	19	0	13	7	2	6	0	1	0	stim003_stimuli_original_animals_birds_3.png	G	0	0	0	430.237122473307	430.437121546827
110304	100	692	19	0	13	8	7	0	0	0	0	stim008_stimuli_original_animals_fish_4.png	A	0	0	0	430.637164018583	430.837160166353
110404	100	693	19	0	13	9	8	1	0	0	0	stim009_stimuli_original_vehicles_boats_1.png	B	0	0	0	431.03716752911	431.237177818082
110504	100	694	19	0	13	10	2	13	1	0	0	stim003_stimuli_original_animals_birds_3.png	U	0	0	0	431.437153485604	431.637151340488
110604	100	695	19	0	13	11	15	5	0	0	0	stim016_stimuli_original_vehicles_planes_4.png	F	0	0	0	431.837164554745	432.037174843717
110704	100	696	19	0	13	12	2	6	1	0	1	stim003_stimuli_original_animals_birds_3.png	G	0	0	0	432.237175135873	432.437214194331
110804	100	697	19	0	13	13	5	14	0	0	0	stim006_stimuli_original_animals_fish_2.png	V	0	0	0	432.637193763163	432.837188691832
110904	100	698	19	0	13	14	1	2	0	0	0	stim002_stimuli_original_animals_birds_2.png	C	0	0	0	433.037193616852	433.237193665467
111004	100	699	19	0	13	15	4	10	0	0	0	stim005_stimuli_original_animals_fish_1.png	Q	0	0	0	433.437205904629	433.637209610548
111104	100	700	19	0	13	16	11	7	0	0	0	stim012_stimuli_original_vehicles_boats_4.png	J	0	0	0	433.837255008053	434.037227506284
111204	100	701	19	0	13	17	0	9	0	0	0	stim001_stimuli_original_animals_birds_1.png	L	0	0	0	434.237225117162	434.437231017277
111304	100	702	19	0	13	18	9	0	0	0	0	stim010_stimuli_original_vehicles_boats_2.png	A	0	0	0	434.637252765242	434.837246718351
111404	100	703	19	0	13	19	7	11	0	0	0	stim008_stimuli_original_animals_fish_4.png	R	0	0	0	435.037253106479	435.237457955256
111504	100	704	19	0	13	20	10	4	0	0	0	stim011_stimuli_original_vehicles_boats_3.png	E	0	0	0	435.437290506903	435.637266174424
111604	100	705	19	0	13	21	2	1	0	0	0	stim003_stimuli_original_animals_birds_3.png	B	0	0	0	435.837304501329	436.037285532802
111704	100	706	19	0	13	22	14	5	0	0	0	stim015_stimuli_original_vehicles_planes_3.png	F	0	0	0	436.237308743875	436.437312205788
111804	100	707	19	0	13	23	6	2	0	1	0	stim007_stimuli_original_animals_fish_3.png	C	0	0	0	436.637293237261	436.837324006017
111904	100	708	19	0	13	24	5	15	0	0	0	stim006_stimuli_original_animals_fish_2.png	Y	0	0	0	437.037304549944	437.237309474964
112004	100	709	19	0	13	25	13	2	0	1	0	stim014_stimuli_original_vehicles_planes_2.png	C	0	0	0	437.437313912436	437.637350532692
112104	100	710	19	0	13	26	1	8	0	0	0	stim002_stimuli_original_animals_birds_2.png	K	0	0	0	437.837357164361	438.037356481422
112204	100	711	19	0	13	27	0	7	0	0	0	stim001_stimuli_original_animals_birds_1.png	J	0	0	0	438.237360674888	438.437352434266
112304	100	712	19	0	13	28	6	2	1	0	0	stim007_stimuli_original_animals_fish_3.png	C	0	0	0	438.637371256482	438.837382033002
112404	100	713	19	0	13	29	11	10	0	0	0	stim012_stimuli_original_vehicles_boats_4.png	Q	0	0	0	439.037367696874	439.237369452138
112504	100	714	19	0	13	30	6	3	1	0	1	stim007_stimuli_original_animals_fish_3.png	D	0	0	0	439.4373946134	439.637383447029
112604	100	715	19	0	13	31	4	6	0	0	0	stim005_stimuli_original_animals_fish_1.png	G	0	0	0	439.837404706981	440.037392077502
112704	100	716	19	0	13	32	8	13	0	0	0	stim009_stimuli_original_vehicles_boats_1.png	U	0	0	0	440.237385787535	440.437386080157
112804	100	717	19	0	13	33	15	12	0	0	0	stim016_stimuli_original_vehicles_planes_4.png	T	0	0	0	440.637431964744	440.837434695568
112904	100	718	19	0	13	34	3	9	0	0	0	stim004_stimuli_original_animals_birds_4.png	L	0	0	0	441.037436938845	441.237428697757
113004	100	719	19	0	13	35	12	14	0	0	0	stim013_stimuli_original_vehicles_planes_1.png	V	0	0	0	441.437457028776	441.637457564939
114249.75	100	720	20	1	29	0	12	8	0	0	0	stim013_stimuli_original_vehicles_planes_1.png	K	0	0	0	446.420893834438	446.620889007114
114349.75	100	721	20	1	29	1	10	0	0	0	0	stim011_stimuli_original_vehicles_boats_3.png	A	0	0	0	446.82089612633	447.020899100695
114449.75	100	722	20	1	29	2	14	15	0	0	0	stim015_stimuli_original_vehicles_planes_3.png	Y	0	0	0	447.220906220376	447.420913339593
114549.75	100	723	20	1	29	3	0	9	0	0	0	stim001_stimuli_original_animals_birds_1.png	L	0	0	0	447.620920458809	447.820923433173
114649.75	100	724	20	1	29	4	6	4	0	0	0	stim007_stimuli_original_animals_fish_3.png	E	0	0	0	448.020936891437	448.220930357464
114749.75	100	725	20	1	29	5	7	13	0	0	0	stim008_stimuli_original_animals_fish_4.png	U	0	0	0	448.420935282018	448.620953129139
114849.75	100	726	20	1	29	6	14	7	1	0	0	stim015_stimuli_original_vehicles_planes_3.png	J	0	0	0	448.820953909308	449.02098199632
114949.75	100	727	20	1	29	7	1	11	0	0	0	stim002_stimuli_original_animals_birds_2.png	R	0	0	0	449.22098009428	449.420964783058
115049.75	100	728	20	1	29	8	14	12	1	0	0	stim015_stimuli_original_vehicles_planes_3.png	T	0	0	0	449.620975315571	449.820975852199
115149.75	100	729	20	1	29	9	2	2	0	0	0	stim003_stimuli_original_animals_birds_3.png	C	0	0	0	450.020997112151	450.221003012266
115249.75	100	730	20	1	29	10	4	5	0	0	0	stim005_stimuli_original_animals_fish_1.png	F	0	0	0	450.420994528104	450.620997990016
115349.75	100	731	20	1	29	11	5	3	0	0	0	stim006_stimuli_original_animals_fish_2.png	D	0	0	0	450.821008766536	451.021008815151
115449.75	100	732	20	1	29	12	13	11	0	1	0	stim014_stimuli_original_vehicles_planes_2.png	R	0	0	0	451.221016665921	451.421019396279
115549.75	100	733	20	1	29	13	11	14	0	0	0	stim012_stimuli_original_vehicles_boats_4.png	V	0	0	0	451.621034561656	451.82103826711
115649.75	100	734	20	1	29	14	3	11	0	1	1	stim004_stimuli_original_animals_birds_4.png	R	0	0	0	452.021070254967	452.221051042899
115749.75	100	735	20	1	29	15	8	6	0	0	0	stim009_stimuli_original_vehicles_boats_1.png	G	0	0	0	452.421097415499	452.621080397628
115849.75	100	736	20	1	29	16	15	10	0	0	0	stim016_stimuli_original_vehicles_planes_4.png	Q	0	0	0	452.821066305507	453.021068060771
115949.75	100	737	20	1	29	17	9	1	0	0	0	stim010_stimuli_original_vehicles_boats_2.png	B	f	453.213670931291	1	453.221085907891	453.421100828797
116049.75	100	738	20	1	29	18	1	9	0	0	0	stim002_stimuli_original_animals_birds_2.png	L	0	0	0	453.621109167114	453.821121650282
116149.75	100	739	20	1	29	19	10	15	0	0	0	stim011_stimuli_original_vehicles_boats_3.png	Y	0	0	0	454.021118041594	454.221126867458
116249.75	100	740	20	1	29	20	6	8	0	0	0	stim007_stimuli_original_animals_fish_3.png	K	0	0	0	454.421114725992	454.621138424147
116349.75	100	741	20	1	29	21	11	3	1	0	0	stim012_stimuli_original_vehicles_boats_4.png	D	0	0	0	454.821139448322	455.021145835984
116450	100	742	20	1	29	22	14	11	0	0	0	stim015_stimuli_original_vehicles_planes_3.png	R	0	0	0	455.22139383899	455.421129110735
116549.75	100	743	20	1	29	23	11	13	1	0	0	stim012_stimuli_original_vehicles_boats_4.png	U	0	0	0	455.621137692593	455.821138960775
116649.75	100	744	20	1	29	24	3	5	0	0	0	stim004_stimuli_original_animals_birds_4.png	F	0	0	0	456.021146811079	456.221149298362
116749.75	100	745	20	1	29	25	5	4	0	0	0	stim006_stimuli_original_animals_fish_2.png	E	0	0	0	456.421155442018	456.621156953741
116849.75	100	746	20	1	29	26	2	2	0	0	0	stim003_stimuli_original_animals_birds_3.png	C	0	0	0	456.821161147207	457.021173386369
116950	100	747	20	1	29	27	12	14	0	1	0	stim013_stimuli_original_vehicles_planes_1.png	V	0	0	0	457.221172947437	457.421209811699
117050	100	748	20	1	29	28	11	1	0	0	0	stim012_stimuli_original_vehicles_boats_4.png	B	0	0	0	457.621214005165	457.821220392827
117150	100	749	20	1	29	29	7	14	0	1	1	stim008_stimuli_original_animals_fish_4.png	V	0	0	0	458.021232388448	458.221227804665
117250	100	750	20	1	29	30	13	7	0	0	0	stim014_stimuli_original_vehicles_planes_2.png	J	0	0	0	458.421235655434	458.621223757509
117350	100	751	20	1	29	31	4	6	0	0	0	stim005_stimuli_original_animals_fish_1.png	G	0	0	0	458.82125062542	459.021250186488
117450	100	752	20	1	29	32	9	0	0	0	0	stim010_stimuli_original_vehicles_boats_2.png	A	0	0	0	459.22124170186	459.421262962278
117550	100	753	20	1	29	33	15	14	0	0	0	stim016_stimuli_original_vehicles_planes_4.png	V	0	0	0	459.62126934994	459.82125550136
117650	100	754	20	1	29	34	0	10	0	0	0	stim001_stimuli_original_animals_birds_1.png	Q	0	0	0	460.021283100825	460.22128607519
117750	100	755	20	1	29	35	8	12	0	0	0	stim009_stimuli_original_vehicles_boats_1.png	T	0	0	0	460.421280028764	460.62172941817
118337.5	100	756	21	0	27	0	4	10	0	0	0	stim005_stimuli_original_animals_fish_1.png	Q	0	0	0	462.771355024539	462.971359705552
118437.5	100	757	21	0	27	1	5	11	0	0	0	stim006_stimuli_original_animals_fish_2.png	R	0	0	0	463.17134829564	463.371366386302
118537.5	100	758	21	0	27	2	6	15	0	0	0	stim007_stimuli_original_animals_fish_3.png	Y	0	0	0	463.571357657667	463.771378186531
118637.5	100	759	21	0	27	3	2	14	0	0	0	stim003_stimuli_original_animals_birds_3.png	V	0	0	0	463.971385305747	464.171390474308
118737.5	100	760	21	0	27	4	1	1	0	0	0	stim002_stimuli_original_animals_birds_2.png	B	0	0	0	464.371395886876	464.571384232957
118837.5	100	761	21	0	27	5	12	7	0	0	0	stim013_stimuli_original_vehicles_planes_1.png	J	0	0	0	464.771389401518	464.971410905477
118937.5	100	762	21	0	27	6	5	4	1	0	0	stim006_stimuli_original_animals_fish_2.png	E	0	0	0	465.171421926003	465.371421730611
119037.5	100	763	21	0	27	7	3	8	0	0	0	stim004_stimuli_original_animals_birds_4.png	K	0	0	0	465.571428606287	465.771418902557
119137.5	100	764	21	0	27	8	5	5	1	0	1	stim006_stimuli_original_animals_fish_2.png	F	0	0	0	465.971425534226	466.171447038185
119237.5	100	765	21	0	27	9	11	2	0	0	0	stim012_stimuli_original_vehicles_boats_4.png	C	f	466.563199306373	1	466.371433433611	466.57145298738
119337.5	100	766	21	0	27	10	14	1	0	1	0	stim015_stimuli_original_vehicles_planes_3.png	B	0	0	0	466.771462544333	466.971463080961
119437.5	100	767	21	0	27	11	7	13	0	0	0	stim008_stimuli_original_animals_fish_4.png	U	0	0	0	467.171470687725	467.371739658527
119537.5	100	768	21	0	27	12	0	1	0	1	0	stim001_stimuli_original_animals_birds_1.png	B	0	0	0	467.571483219508	467.771470346488
119637.5	100	769	21	0	27	13	9	6	0	0	0	stim010_stimuli_original_vehicles_boats_2.png	G	0	0	0	467.971495995298	468.171495556366
119737.5	100	770	21	0	27	14	15	0	0	0	0	stim016_stimuli_original_vehicles_planes_4.png	A	0	0	0	468.371502188034	468.571507600602
119837.5	100	771	21	0	27	15	10	3	0	0	0	stim011_stimuli_original_vehicles_boats_3.png	D	0	0	0	468.771497652866	468.97151818173
119937.5	100	772	21	0	27	16	8	12	0	0	0	stim009_stimuli_original_vehicles_boats_1.png	T	0	0	0	469.171523594297	469.371528275311
120037.5	100	773	21	0	27	17	13	9	0	0	0	stim014_stimuli_original_vehicles_planes_2.png	L	0	0	0	469.571537345182	469.771537393797
120137.5	100	774	21	0	27	18	9	13	0	0	0	stim010_stimuli_original_vehicles_boats_2.png	U	0	0	0	469.971557191107	470.171534078196
120237.5	100	775	21	0	27	19	12	8	0	0	0	stim013_stimuli_original_vehicles_planes_1.png	K	0	0	0	470.37153095752	470.571535150986
120337.5	100	776	21	0	27	20	3	10	0	0	0	stim004_stimuli_original_animals_birds_4.png	Q	0	0	0	470.771546171047	470.971561579965
120437.5	100	777	21	0	27	21	0	15	0	0	0	stim001_stimuli_original_animals_birds_1.png	Y	0	0	0	471.171577719972	471.371576305944
120537.5	100	778	21	0	27	22	6	9	0	0	0	stim007_stimuli_original_animals_fish_3.png	L	0	0	0	471.571590495761	471.771592495032
120637.5	100	779	21	0	27	23	1	0	1	0	0	stim002_stimuli_original_animals_birds_2.png	A	0	0	0	471.971601564437	472.171575281769
120737.5	100	780	21	0	27	24	13	7	0	0	0	stim014_stimuli_original_vehicles_planes_2.png	J	0	0	0	472.371618241072	472.571595615707
120837.5	100	781	21	0	27	25	1	14	1	0	1	stim002_stimuli_original_animals_birds_2.png	V	0	0	0	472.771612243727	472.971627896186
120937.5	100	782	21	0	27	26	2	11	0	0	0	stim003_stimuli_original_animals_birds_3.png	R	0	0	0	473.171613072511	473.371628237423
121037.5	100	783	21	0	27	27	5	5	0	1	0	stim006_stimuli_original_animals_fish_2.png	F	0	0	0	473.57164242724	473.771650277544
121137.5	100	784	21	0	27	28	8	3	0	0	0	stim009_stimuli_original_vehicles_boats_1.png	D	0	0	0	473.971655690577	474.171635990497
121237.5	100	785	21	0	27	29	4	5	0	1	0	stim005_stimuli_original_animals_fish_1.png	F	0	0	0	474.371658713557	474.571647059638
121337.5	100	786	21	0	27	30	7	12	0	0	0	stim008_stimuli_original_animals_fish_4.png	T	0	0	0	474.771656129044	474.971659103874
121437.5	100	787	21	0	27	31	1	1	0	0	0	stim002_stimuli_original_animals_birds_2.png	B	0	0	0	475.171669879928	475.371690408792
121537.5	100	788	21	0	27	32	14	2	0	0	0	stim015_stimuli_original_vehicles_planes_3.png	C	0	0	0	475.57169094542	475.771683679894
121637.5	100	789	21	0	27	33	15	6	0	0	0	stim016_stimuli_original_vehicles_planes_4.png	G	0	0	0	475.971692749299	476.171696455218
121737.5	100	790	21	0	27	34	11	5	0	0	0	stim012_stimuli_original_vehicles_boats_4.png	F	0	0	0	476.371691383887	476.571699478664
121837.5	100	791	21	0	27	35	10	4	0	0	0	stim011_stimuli_original_vehicles_boats_3.png	E	0	0	0	476.771711473819	476.97171176644
122425	100	792	22	1	15	0	13	15	0	0	0	stim014_stimuli_original_vehicles_planes_2.png	Y	0	0	0	479.121775254607	479.321777984966
122525	100	793	22	1	15	1	2	8	0	0	0	stim003_stimuli_original_animals_birds_3.png	K	0	0	0	479.521807778627	479.7218063646
122625	100	794	22	1	15	2	5	7	0	0	0	stim006_stimuli_original_animals_fish_2.png	J	0	0	0	479.921790321823	480.121815726627
122725	100	795	22	1	15	3	1	2	0	0	0	stim002_stimuli_original_animals_birds_2.png	C	0	0	0	480.32180943666	480.521807291079
122825	100	796	22	1	15	4	10	4	0	0	0	stim011_stimuli_original_vehicles_boats_3.png	E	0	0	0	480.721817336045	480.921839084011
122925	100	797	22	1	15	5	8	9	0	0	0	stim009_stimuli_original_vehicles_boats_1.png	L	0	0	0	481.121845471673	481.321848690044
123025	100	798	22	1	15	6	9	5	0	0	0	stim010_stimuli_original_vehicles_boats_2.png	F	0	0	0	481.521828502417	481.721843667328
