onset	duration	eventnumber	sequencenumber	condition	streamnumber	stimnumber	objectstimnumber	letterstimnumber	objecttarget	lettertarget	is2back	objectstim	letterstim	response	rt	correct	time_stimon	time_stimoff
14640.75	100	0	0	0	26	0	10	4	0	0	0	stim011_stimuli_original_vehicles_boats_3.png	E	0	0	0	32.2599011007696	32.4599033440463
14740.75	100	1	0	0	26	1	4	1	0	0	0	stim005_stimuli_original_animals_fish_1.png	B	0	0	0	32.6605380289257	32.8599180700257
14840.75	100	2	0	0	26	2	3	14	0	0	0	stim004_stimuli_original_animals_birds_4.png	V	0	0	0	33.0599266523495	33.259911341127
14940.75	100	3	0	0	26	3	5	7	0	0	0	stim006_stimuli_original_animals_fish_2.png	J	0	0	0	33.4599386965856	33.659919240512
15040.75	100	4	0	0	26	4	13	2	0	0	0	stim014_stimuli_original_vehicles_planes_2.png	C	0	0	0	33.8599495217204	34.0599222634919
15140.75	100	5	0	0	26	5	2	13	0	0	0	stim003_stimuli_original_animals_birds_3.png	U	0	0	0	34.259952057153	34.4599423534237
15240.75	100	6	0	0	26	6	11	8	0	0	0	stim012_stimuli_original_vehicles_boats_4.png	K	0	0	0	34.6599667831324	34.8599726832472
15340.75	100	7	0	0	26	7	0	0	0	1	0	stim001_stimuli_original_animals_birds_1.png	A	0	0	0	35.0599766331725	35.2599766817875
15440.75	100	8	0	0	26	8	2	5	1	0	0	stim003_stimuli_original_animals_birds_3.png	F	0	0	0	35.4599847765639	35.6599889700301
15540.75	100	9	0	0	26	9	6	0	0	1	0	stim007_stimuli_original_animals_fish_3.png	A	0	0	0	35.8599851178005	36.0599680999294
15640.75	100	10	0	0	26	10	2	9	1	0	1	stim003_stimuli_original_animals_birds_3.png	L	0	0	0	36.2599786324427	36.4600094011985
15740.75	100	11	0	0	26	11	15	12	0	0	0	stim016_stimuli_original_vehicles_planes_4.png	T	f	36.8601789460517	1	36.6599943335168	36.8599946261384
15840.75	100	12	0	0	26	12	12	11	0	0	0	stim013_stimuli_original_vehicles_planes_1.png	R	0	0	0	37.0600268580019	37.2599983811378
15940.75	100	13	0	0	26	13	7	0	0	0	0	stim008_stimuli_original_animals_fish_4.png	A	0	0	0	37.4600147651508	37.6600409015082
16040.75	100	14	0	0	26	14	8	10	0	0	0	stim009_stimuli_original_vehicles_boats_1.png	Q	0	0	0	37.8600546033122	38.0600524577312
16140.75	100	15	0	0	26	15	14	3	0	0	0	stim015_stimuli_original_vehicles_planes_3.png	D	0	0	0	38.2600332456641	38.4600623077713
16240.75	100	16	0	0	26	16	1	6	0	0	0	stim002_stimuli_original_animals_birds_2.png	G	f	38.8518304233439	0	38.6600655261427	38.8600694756024
16340.75	100	17	0	0	26	17	9	15	0	0	0	stim010_stimuli_original_vehicles_boats_2.png	Y	0	0	0	39.0600753761828	39.2600793256424
16440.75	100	18	0	0	26	18	15	9	0	0	0	stim016_stimuli_original_vehicles_planes_4.png	L	0	0	0	39.460088883061	39.6600825926289
16540.75	100	19	0	0	26	19	6	1	0	0	0	stim007_stimuli_original_animals_fish_3.png	B	0	0	0	39.8600714262575	40.0600719624199
16640.75	100	20	0	0	26	20	3	14	0	0	0	stim004_stimuli_original_animals_birds_4.png	V	0	0	0	40.2601119959727	40.4601149708033
16740.75	100	21	0	0	26	21	10	8	0	0	0	stim011_stimuli_original_vehicles_boats_3.png	K	0	0	0	40.6601064861752	40.8601084854454
16840.75	100	22	0	0	26	22	0	7	0	0	0	stim001_stimuli_original_animals_birds_1.png	J	0	0	0	41.0601514442824	41.2601351579651
16940.75	100	23	0	0	26	23	11	12	0	0	0	stim012_stimuli_original_vehicles_boats_4.png	T	0	0	0	41.4601444713771	41.6601303792559
17040.75	100	24	0	0	26	24	12	15	0	0	0	stim013_stimuli_original_vehicles_planes_1.png	Y	0	0	0	41.8601265270263	42.0601292578503
17140.75	100	25	0	0	26	25	9	2	0	1	0	stim010_stimuli_original_vehicles_boats_2.png	C	0	0	0	42.2601368646137	42.4601439838298
17240.75	100	26	0	0	26	26	0	6	1	0	0	stim001_stimuli_original_animals_birds_1.png	G	0	0	0	42.6601798725314	42.8601594413631
17340.75	100	27	0	0	26	27	5	2	0	1	0	stim006_stimuli_original_animals_fish_2.png	C	0	0	0	43.0601648539305	43.2601561257616
17440.75	100	28	0	0	26	28	0	0	1	0	1	stim001_stimuli_original_animals_birds_1.png	A	0	0	0	43.4601656831801	43.6601696326397
17540.75	100	29	0	0	26	29	8	11	0	0	0	stim009_stimuli_original_vehicles_boats_1.png	R	f	44.051944331266	1	43.8601769958623	44.0602123970166
17640.75	100	30	0	0	26	30	13	2	0	0	0	stim014_stimuli_original_vehicles_planes_2.png	C	0	0	0	44.2602148838341	44.4602254163474
17740.75	100	31	0	0	26	31	2	13	0	0	0	stim003_stimuli_original_animals_birds_3.png	U	0	0	0	44.6602325355634	44.8602318526246
17840.75	100	32	0	0	26	32	7	5	0	0	0	stim008_stimuli_original_animals_fish_4.png	F	0	0	0	45.0602199551649	45.260222197976
17940.75	100	33	0	0	26	33	14	3	0	0	0	stim015_stimuli_original_vehicles_planes_3.png	D	0	0	0	45.4602046925575	45.6602259525098
18040.75	100	34	0	0	26	34	1	4	0	0	0	stim002_stimuli_original_animals_birds_2.png	E	0	0	0	45.8602357539348	46.0602384842932
18140.75	100	35	0	0	26	35	4	10	0	0	0	stim005_stimuli_original_animals_fish_1.png	Q	0	0	0	46.2602443848737	46.4602473592386
18999	100	36	1	1	17	0	3	2	0	0	0	stim004_stimuli_original_animals_birds_4.png	C	0	0	0	49.693693430163	49.8936705607921
19099	100	37	1	1	17	1	11	14	0	0	0	stim012_stimuli_original_vehicles_boats_4.png	V	0	0	0	50.0936886514537	50.2936791912653
19199	100	38	1	1	17	2	8	6	0	0	0	stim009_stimuli_original_vehicles_boats_1.png	G	0	0	0	50.4936867984943	50.6939155403525
19299	100	39	1	1	17	3	2	10	0	0	0	stim003_stimuli_original_animals_birds_3.png	Q	0	0	0	50.8937059128657	51.0937047428451
19399	100	40	1	1	17	4	12	3	0	0	0	stim013_stimuli_original_vehicles_planes_1.png	D	0	0	0	51.2937096678652	51.4937228821218
19499	100	41	1	1	17	5	0	9	0	0	0	stim001_stimuli_original_animals_birds_1.png	L	0	0	0	51.6937487744726	51.8937497986481
19599	100	42	1	1	17	6	7	13	0	0	0	stim008_stimuli_original_animals_fish_4.png	U	0	0	0	52.0937571618706	52.2937601362355
19699	100	43	1	1	17	7	14	8	0	0	0	stim015_stimuli_original_vehicles_planes_3.png	K	0	0	0	52.4937709127553	52.6937692547217
19799	100	44	1	1	17	8	6	11	0	0	0	stim007_stimuli_original_animals_fish_3.png	R	f	52.8863282394595	0	52.8937768614851	53.0937564303167
19899	100	45	1	1	17	9	1	15	0	0	0	stim002_stimuli_original_animals_birds_2.png	Y	0	0	0	53.2937591611408	53.4937672554515
19999	100	46	1	1	17	10	11	1	1	0	0	stim012_stimuli_original_vehicles_boats_4.png	B	0	0	0	53.6937768128701	53.8937766179442
20099	100	47	1	1	17	11	5	4	0	0	0	stim006_stimuli_original_animals_fish_2.png	E	0	0	0	54.093784712255	54.2937862239778
20199	100	48	1	1	17	12	11	8	1	1	0	stim012_stimuli_original_vehicles_boats_4.png	K	0	0	0	54.4937957809307	54.6937963175587
20299	100	49	1	1	17	13	13	0	0	0	0	stim014_stimuli_original_vehicles_planes_2.png	A	0	0	0	54.8938051434234	55.0938166510314
20399	100	50	1	1	17	14	10	8	0	1	1	stim011_stimuli_original_vehicles_boats_3.png	K	0	0	0	55.2938206009567	55.4938233317807
20499	100	51	1	1	17	15	9	12	0	0	0	stim010_stimuli_original_vehicles_boats_2.png	T	0	0	0	55.6938309385441	55.8938348880038
20599	100	52	1	1	17	16	15	7	0	0	0	stim016_stimuli_original_vehicles_planes_4.png	J	0	0	0	56.0938671198674	56.2938449820504
20699	100	53	1	1	17	17	4	5	0	0	0	stim005_stimuli_original_animals_fish_1.png	F	f	56.486436881125	1	56.4938491755165	56.6938570262864
20799	100	54	1	1	17	18	5	4	0	0	0	stim006_stimuli_original_animals_fish_2.png	E	0	0	0	56.8938639014959	57.0938612683676
20899	100	55	1	1	17	19	7	15	0	0	0	stim008_stimuli_original_animals_fish_4.png	Y	0	0	0	57.293871069327	57.4938708744012
20999	100	56	1	1	17	20	12	9	0	0	0	stim013_stimuli_original_vehicles_planes_1.png	L	0	0	0	57.6938838451169	57.8938926709816
21099	100	57	1	1	17	21	8	10	1	0	0	stim009_stimuli_original_vehicles_boats_1.png	Q	0	0	0	58.0939195388928	58.2938876487315
21199	100	58	1	1	17	22	0	13	0	0	0	stim001_stimuli_original_animals_birds_1.png	U	0	0	0	58.493921586778	58.6939072506502
21299	100	59	1	1	17	23	8	11	1	1	0	stim009_stimuli_original_vehicles_boats_1.png	R	0	0	0	58.893915832974	59.0939156380482
21399	100	60	1	1	17	24	4	5	0	0	0	stim005_stimuli_original_animals_fish_1.png	F	0	0	0	59.2939325096086	59.4939267067239
21499	100	61	1	1	17	25	1	11	0	1	1	stim002_stimuli_original_animals_birds_2.png	R	0	0	0	59.6939282184467	59.8939416767098
21599	100	62	1	1	17	26	15	1	0	0	0	stim016_stimuli_original_vehicles_planes_4.png	B	0	0	0	60.0939466017298	60.2939515267499
21699	100	63	1	1	17	27	11	6	0	0	0	stim012_stimuli_original_vehicles_boats_4.png	G	0	0	0	60.4939445047639	60.6939591821283
21799	100	64	1	1	17	28	8	14	0	0	0	stim009_stimuli_original_vehicles_boats_1.png	V	0	0	0	60.8939633755945	61.0939646437764
21899.25	100	65	1	1	17	29	13	7	0	0	0	stim014_stimuli_original_vehicles_planes_2.png	J	0	0	0	61.2941182921641	61.494005701039
21999.25	100	66	1	1	17	30	9	0	0	0	0	stim010_stimuli_original_vehicles_boats_2.png	A	0	0	0	61.694008431863	61.8940126253292
22099.25	100	67	1	1	17	31	3	12	0	0	0	stim004_stimuli_original_animals_birds_4.png	T	0	0	0	62.0940219387412	62.294027838856
22199.25	100	68	1	1	17	32	10	2	0	0	0	stim011_stimuli_original_vehicles_boats_3.png	C	0	0	0	62.4940293505788	62.6940174526535
22299.25	100	69	1	1	17	33	6	8	0	0	0	stim007_stimuli_original_animals_fish_3.png	K	0	0	0	62.8940418823622	63.0940460758284
22399.25	100	70	1	1	17	34	14	11	0	0	0	stim015_stimuli_original_vehicles_planes_3.png	R	0	0	0	63.2940568523481	63.4940259372815
22499.25	100	71	1	1	17	35	2	3	0	0	0	stim003_stimuli_original_animals_birds_3.png	D	0	0	0	63.6940476852469	63.8940513911657
23165.75	100	72	2	0	34	0	11	1	0	0	0	stim012_stimuli_original_vehicles_boats_4.png	B	0	0	0	66.3607784737833	66.5607755966485
23265.75	100	73	2	0	34	1	2	5	0	0	0	stim003_stimuli_original_animals_birds_3.png	F	0	0	0	66.7607934433036	66.9607917857356
23365.75	100	74	2	0	34	2	3	10	0	0	0	stim004_stimuli_original_animals_birds_4.png	Q	0	0	0	67.1607998800464	67.3608079743572
23465.75	100	75	2	0	34	3	7	4	0	0	0	stim008_stimuli_original_animals_fish_4.png	E	0	0	0	67.5608097300865	67.7608190434985
23565.75	100	76	2	0	34	4	11	0	1	0	0	stim012_stimuli_original_vehicles_boats_4.png	A	0	0	0	67.9608147037216	68.1608188971877
23665.75	100	77	2	0	34	5	13	2	0	0	0	stim014_stimuli_original_vehicles_planes_2.png	C	0	0	0	68.3608474717475	68.5608397186734
23765.75	100	78	2	0	34	6	11	11	1	0	1	stim012_stimuli_original_vehicles_boats_4.png	R	0	0	0	68.7608441556804	68.9608451798558
23865.75	100	79	2	0	34	7	14	6	0	1	0	stim015_stimuli_original_vehicles_planes_3.png	G	0	0	0	69.1608535181731	69.3608579556458
23965.75	100	80	2	0	34	8	10	15	0	0	0	stim011_stimuli_original_vehicles_boats_3.png	Y	0	0	0	69.5608648308553	69.7608665861189
24065.75	100	81	2	0	34	9	5	6	0	1	0	stim006_stimuli_original_animals_fish_2.png	G	0	0	0	69.9608756559901	70.1608749735169
24165.75	100	82	2	0	34	10	12	3	0	0	0	stim013_stimuli_original_vehicles_planes_1.png	D	0	0	0	70.3608791669831	70.5609131050296
24265.75	100	83	2	0	34	11	1	12	0	0	0	stim002_stimuli_original_animals_birds_2.png	T	0	0	0	70.7609114474617	70.9608932104893
24365.75	100	84	2	0	34	12	9	6	0	0	0	stim010_stimuli_original_vehicles_boats_2.png	G	0	0	0	71.1609110571444	71.3609320735559
24465.75	100	85	2	0	34	13	6	8	0	0	0	stim007_stimuli_original_animals_fish_3.png	K	0	0	0	71.5609445567243	71.7609448493458
24565.75	100	86	2	0	34	14	0	7	0	0	0	stim001_stimuli_original_animals_birds_1.png	J	0	0	0	71.9609234426171	72.1609276360832
24665.75	100	87	2	0	34	15	8	14	0	0	0	stim009_stimuli_original_vehicles_boats_1.png	V	0	0	0	72.3609608430415	72.560945531819
24765.75	100	88	2	0	34	16	15	9	0	0	0	stim016_stimuli_original_vehicles_planes_4.png	L	0	0	0	72.7609670357779	72.9609765931964
24865.75	100	89	2	0	34	17	4	13	0	0	0	stim005_stimuli_original_animals_fish_1.png	U	0	0	0	73.1609464096837	73.3609608430415
24966	100	90	2	0	34	18	13	4	0	0	0	stim014_stimuli_original_vehicles_planes_2.png	E	0	0	0	73.5612061643042	73.7609748379327
25065.75	100	91	2	0	34	19	9	15	0	0	0	stim010_stimuli_original_vehicles_boats_2.png	Y	0	0	0	73.9609687910415	74.1609939523041
25165.75	100	92	2	0	34	20	14	8	0	0	0	stim015_stimuli_original_vehicles_planes_3.png	K	0	0	0	74.3610098487698	74.5610152613372
25265.75	100	93	2	0	34	21	7	0	0	0	0	stim008_stimuli_original_animals_fish_4.png	A	0	0	0	74.7610214054585	74.9610243798234
25366	100	94	2	0	34	22	8	6	0	0	0	stim009_stimuli_original_vehicles_boats_1.png	G	0	0	0	75.1610322305933	75.3610339858569
25466	100	95	2	0	34	23	6	9	0	0	0	stim007_stimuli_original_animals_fish_3.png	L	f	75.5536290546879	0	75.5610418366268	75.761046030093
25566	100	96	2	0	34	24	12	1	0	0	0	stim013_stimuli_original_vehicles_planes_1.png	B	0	0	0	75.9610524177551	76.1610561236739
25666	100	97	2	0	34	25	3	12	0	0	0	stim004_stimuli_original_animals_birds_4.png	T	0	0	0	76.3610625118017	76.5610406175256
25766	100	98	2	0	34	26	6	5	1	0	0	stim007_stimuli_original_animals_fish_3.png	F	0	0	0	76.7610550508834	76.9610550999641
25866	100	99	2	0	34	27	15	10	0	0	0	stim016_stimuli_original_vehicles_planes_4.png	Q	0	0	0	77.16108586872	77.3610571478494
25966	100	100	2	0	34	28	6	14	1	0	1	stim007_stimuli_original_animals_fish_3.png	V	f	77.5536529477686	1	77.561100107152	77.76107309293
26066	100	101	2	0	34	29	11	11	0	1	0	stim012_stimuli_original_vehicles_boats_4.png	R	0	0	0	77.9610743606463	78.1611073235981
26166	100	102	2	0	34	30	2	13	0	0	0	stim003_stimuli_original_animals_birds_3.png	U	0	0	0	78.361112980172	78.5611083963886
26266	100	103	2	0	34	31	0	11	0	1	0	stim001_stimuli_original_animals_birds_1.png	R	0	0	0	78.761120879557	78.9615380861796
26366	100	104	2	0	34	32	4	7	0	0	0	stim005_stimuli_original_animals_fish_1.png	J	0	0	0	79.1611100058071	79.3611149308272
26466	100	105	2	0	34	33	10	3	0	0	0	stim011_stimuli_original_vehicles_boats_3.png	D	0	0	0	79.5611210744828	79.7611255119555
26566	100	106	2	0	34	34	5	2	0	0	0	stim006_stimuli_original_animals_fish_2.png	C	0	0	0	79.9611353129148	80.161128047388
26666	100	107	2	0	34	35	1	11	0	0	0	stim002_stimuli_original_animals_birds_2.png	R	0	0	0	80.3611415056512	80.5611754441634
28832.5	100	108	3	1	18	0	4	8	0	0	0	stim005_stimuli_original_animals_fish_1.png	K	0	0	0	89.0280668544583	89.2280720230192
28932.5	100	109	3	1	18	1	3	14	0	0	0	stim004_stimuli_original_animals_birds_4.png	V	0	0	0	89.4280754853971	89.6280496902764
29032.5	100	110	3	1	18	2	9	15	0	0	0	stim010_stimuli_original_vehicles_boats_2.png	Y	0	0	0	89.8280582721345	90.0280602714047
29132.75	100	111	3	1	18	3	10	9	0	0	0	stim011_stimuli_original_vehicles_boats_3.png	L	0	0	0	90.2281020116061	90.4281020602211
29232.75	100	112	3	1	18	4	7	13	0	0	0	stim008_stimuli_original_animals_fish_4.png	U	0	0	0	90.628089918755	90.8280867980793
29332.75	100	113	3	1	18	5	2	1	1	1	0	stim003_stimuli_original_animals_birds_3.png	B	0	0	0	91.0280900164507	91.2280946974643
29432.75	100	114	3	1	18	6	0	5	0	0	0	stim001_stimuli_original_animals_birds_1.png	F	0	0	0	91.4281030357815	91.6281043034978
29532.75	100	115	3	1	18	7	2	1	1	1	1	stim003_stimuli_original_animals_birds_3.png	B	0	0	0	91.8285593003966	92.0281443856657
29632.75	100	116	3	1	18	8	13	4	0	0	0	stim014_stimuli_original_vehicles_planes_2.png	E	0	0	0	92.2281239544973	92.4281227840111
29732.75	100	117	3	1	18	9	8	12	0	0	0	stim009_stimuli_original_vehicles_boats_1.png	T	f	92.6206934717484	1	92.6281606233679	92.828164816834
29832.75	100	118	3	1	18	10	5	6	0	0	0	stim006_stimuli_original_animals_fish_2.png	G	0	0	0	93.0281709609553	93.2281739353202
29932.75	100	119	3	1	18	11	6	11	0	0	0	stim007_stimuli_original_animals_fish_3.png	R	0	0	0	93.4281861744821	93.6281684255227
30032.75	100	120	3	1	18	12	15	3	0	0	0	stim016_stimuli_original_vehicles_planes_4.png	D	0	0	0	93.8281774949282	94.0281726676039
30132.75	100	121	3	1	18	13	2	1	0	0	0	stim003_stimuli_original_animals_birds_3.png	B	0	0	0	94.2281851507723	94.4281851993874
30232.75	100	122	3	1	18	14	12	0	0	0	0	stim013_stimuli_original_vehicles_planes_1.png	A	f	94.8290922679007	0	94.628212554846	94.8282145541161
30332.75	100	123	3	1	18	15	1	2	0	0	0	stim002_stimuli_original_animals_birds_2.png	C	0	0	0	95.0282065570354	95.228199779056
30432.75	100	124	3	1	18	16	14	10	0	0	0	stim015_stimuli_original_vehicles_planes_3.png	Q	0	0	0	95.4282363993116	95.6282227947377
30532.75	100	125	3	1	18	17	11	7	0	0	0	stim012_stimuli_original_vehicles_boats_4.png	J	0	0	0	95.8282635598443	96.0282480046153
30632.75	100	126	3	1	18	18	7	11	0	0	0	stim008_stimuli_original_animals_fish_4.png	R	0	0	0	96.2282526860945	96.4282612679526
30732.75	100	127	3	1	18	19	10	14	0	0	0	stim011_stimuli_original_vehicles_boats_3.png	V	0	0	0	96.6282335226424	96.8282403978519
30832.75	100	128	3	1	18	20	2	1	0	0	0	stim003_stimuli_original_animals_birds_3.png	B	0	0	0	97.0282748239115	97.2285045408644
30932.75	100	129	3	1	18	21	0	12	0	0	0	stim001_stimuli_original_animals_birds_1.png	T	f	97.6200568852946	0	97.4282934507355	97.6282908176072
31032.75	100	130	3	1	18	22	1	2	0	0	0	stim002_stimuli_original_animals_birds_2.png	C	0	0	0	97.828303788323	98.0283006676473
31132.75	100	131	3	1	18	23	3	15	0	0	0	stim004_stimuli_original_animals_birds_4.png	Y	0	0	0	98.2283102250658	98.4282795535401
31232.75	100	132	3	1	18	24	11	6	0	0	0	stim012_stimuli_original_vehicles_boats_4.png	G	0	0	0	98.6283000824042	98.8282950110734
31332.75	100	133	3	1	18	25	6	5	0	0	0	stim007_stimuli_original_animals_fish_3.png	F	0	0	0	99.0283011551946	99.2283338746056
31432.75	100	134	3	1	18	26	12	8	0	0	0	stim013_stimuli_original_vehicles_planes_1.png	K	0	0	0	99.4283424564637	99.6283266576938
31532.75	100	135	3	1	18	27	4	13	0	0	0	stim005_stimuli_original_animals_fish_1.png	U	0	0	0	99.8283289005049	100.028352111578
31632.75	100	136	3	1	18	28	1	2	1	1	0	stim002_stimuli_original_animals_birds_2.png	C	0	0	0	100.228333874606	100.428344407119
31732.75	100	137	3	1	18	29	5	0	0	0	0	stim006_stimuli_original_animals_fish_2.png	A	0	0	0	100.628351282328	100.828352550045
31832.75	100	138	3	1	18	30	1	2	1	1	1	stim002_stimuli_original_animals_birds_2.png	C	0	0	0	101.02836235147	101.228389950469
31932.75	100	139	3	1	18	31	13	7	0	0	0	stim014_stimuli_original_vehicles_planes_2.png	J	0	0	0	101.428376589902	101.628355671186
32032.75	100	140	3	1	18	32	9	10	0	0	0	stim010_stimuli_original_vehicles_boats_2.png	Q	0	0	0	101.828403750435	102.028380393051
32132.75	100	141	3	1	18	33	15	9	0	0	0	stim016_stimuli_original_vehicles_planes_4.png	L	0	0	0	102.228392632678	102.428422182333
32232.75	100	142	3	1	18	34	14	3	0	0	0	stim015_stimuli_original_vehicles_planes_3.png	D	0	0	0	102.628432714846	102.828427155968
32332.75	100	143	3	1	18	35	8	4	0	0	0	stim009_stimuli_original_vehicles_boats_1.png	E	0	0	0	103.028404530603	103.228407748509
33678.5	100	144	4	0	39	0	1	0	0	0	0	stim002_stimuli_original_animals_birds_2.png	A	0	0	0	108.411889464594	108.611897071358
33778.5	100	145	4	0	39	1	2	7	0	0	0	stim003_stimuli_original_animals_birds_3.png	J	0	0	0	108.811907603871	109.011899850797
33878.5	100	146	4	0	39	2	12	11	0	0	0	stim013_stimuli_original_vehicles_planes_1.png	R	0	0	0	109.211909651756	109.411919696722
33978.5	100	147	4	0	39	3	9	5	0	0	0	stim010_stimuli_original_vehicles_boats_2.png	F	0	0	0	109.611947783735	109.811929302756
34078.5	100	148	4	0	39	4	8	10	0	0	0	stim009_stimuli_original_vehicles_boats_1.png	Q	0	0	0	110.011950563174	110.211937446147
34178.5	100	149	4	0	39	5	7	9	0	0	0	stim008_stimuli_original_animals_fish_4.png	L	0	0	0	110.41194480937	110.611941444688
34278.5	100	150	4	0	39	6	11	8	0	1	0	stim012_stimuli_original_vehicles_boats_4.png	K	0	0	0	110.811948807444	111.011942029931
34378.5	100	151	4	0	39	7	12	1	1	0	0	stim013_stimuli_original_vehicles_planes_1.png	B	0	0	0	111.211952562444	111.411995765287
34478.5	100	152	4	0	39	8	13	8	0	1	0	stim014_stimuli_original_vehicles_planes_2.png	K	0	0	0	111.611969726626	111.811970019247
34578.5	100	153	4	0	39	9	12	3	1	0	1	stim013_stimuli_original_vehicles_planes_1.png	D	0	0	0	112.011978357565	112.21198742697
34678.5	100	154	4	0	39	10	4	2	0	0	0	stim005_stimuli_original_animals_fish_1.png	C	f	112.603795039933	1	112.412025753874	112.612018732354
34778.5	100	155	4	0	39	11	14	8	0	0	0	stim015_stimuli_original_vehicles_planes_3.png	K	0	0	0	112.812026826665	113.012012246996
34878.5	100	156	4	0	39	12	6	15	0	0	0	stim007_stimuli_original_animals_fish_3.png	Y	0	0	0	113.212034970056	113.412021121476
34978.5	100	157	4	0	39	13	10	4	0	0	0	stim011_stimuli_original_vehicles_boats_3.png	E	0	0	0	113.612021658104	113.812021462712
35078.5	100	158	4	0	39	14	0	14	0	0	0	stim001_stimuli_original_animals_birds_1.png	V	0	0	0	114.012028581928	114.21202985011
35178.5	100	159	4	0	39	15	15	6	0	0	0	stim016_stimuli_original_vehicles_planes_4.png	G	0	0	0	114.412037212867	114.612052865326
35278.5	100	160	4	0	39	16	5	13	0	0	0	stim006_stimuli_original_animals_fish_2.png	U	0	0	0	114.812061203644	115.012056376319
35378.5	100	161	4	0	39	17	3	12	0	0	0	stim004_stimuli_original_animals_birds_4.png	T	0	0	0	115.212070078589	115.412064032163
35478.5	100	162	4	0	39	18	12	3	0	0	0	stim013_stimuli_original_vehicles_planes_1.png	D	0	0	0	115.612078953069	115.812077295035
35578.5	100	163	4	0	39	19	13	5	0	0	0	stim014_stimuli_original_vehicles_planes_2.png	F	0	0	0	116.012080269866	116.212114451919
35678.5	100	164	4	0	39	20	6	15	0	0	0	stim007_stimuli_original_animals_fish_3.png	Y	0	0	0	116.412096214946	116.612128690351
35778.5	100	165	4	0	39	21	14	0	0	0	0	stim015_stimuli_original_vehicles_planes_3.png	A	0	0	0	116.812136297114	117.012109282892
35878.5	100	166	4	0	39	22	4	10	0	0	0	stim005_stimuli_original_animals_fish_1.png	Q	0	0	0	117.212110307068	117.412115475629
35978.75	100	167	4	0	39	23	15	6	0	0	0	stim016_stimuli_original_vehicles_planes_4.png	G	0	0	0	117.612597291823	117.812142880168
36078.5	100	168	4	0	39	24	8	14	0	0	0	stim009_stimuli_original_vehicles_boats_1.png	V	0	0	0	118.012139271479	118.212134931702
36178.5	100	169	4	0	39	25	2	4	0	0	0	stim003_stimuli_original_animals_birds_3.png	E	0	0	0	118.412144733127	118.612182084471
36278.75	100	170	4	0	39	26	3	12	0	1	0	stim004_stimuli_original_animals_birds_4.png	T	0	0	0	118.812188960146	119.012171210721
36378.75	100	171	4	0	39	27	8	13	1	0	0	stim009_stimuli_original_vehicles_boats_1.png	U	0	0	0	119.212194177322	119.412201296538
36478.75	100	172	4	0	39	28	1	12	0	1	0	stim002_stimuli_original_animals_birds_2.png	T	0	0	0	119.612209878862	119.812215047423
36578.75	100	173	4	0	39	29	8	11	1	0	1	stim009_stimuli_original_vehicles_boats_1.png	R	0	0	0	120.012183157261	120.212188813835
36678.75	100	174	4	0	39	30	9	7	0	0	0	stim010_stimuli_original_vehicles_boats_2.png	J	0	0	0	120.412203734741	120.612209634855
36778.75	100	175	4	0	39	31	10	8	0	0	0	stim011_stimuli_original_vehicles_boats_3.png	K	0	0	0	120.812249424867	121.012206319254
36878.75	100	176	4	0	39	32	5	9	0	0	0	stim006_stimuli_original_animals_fish_2.png	L	0	0	0	121.212215876672	121.412254203577
36978.75	100	177	4	0	39	33	11	12	0	0	0	stim012_stimuli_original_vehicles_boats_4.png	T	0	0	0	121.612249375787	121.81223918451
37078.75	100	178	4	0	39	34	7	2	0	0	0	stim008_stimuli_original_animals_fish_4.png	C	0	0	0	122.012237039395	122.2122461088
37178.75	100	179	4	0	39	35	0	1	0	0	0	stim001_stimuli_original_animals_birds_1.png	B	0	0	0	122.412250789814	122.612258153036
38449.5	100	180	5	1	47	0	8	1	0	0	0	stim009_stimuli_original_vehicles_boats_1.png	B	0	0	0	127.495728946291	127.69575045025
38549.5	100	181	5	1	47	1	9	6	0	0	0	stim010_stimuli_original_vehicles_boats_2.png	G	0	0	0	127.895760251209	128.09575737454
38649.5	100	182	5	1	47	2	2	2	0	0	0	stim003_stimuli_original_animals_birds_3.png	C	0	0	0	128.295769369695	128.495761616621
38749.5	100	183	5	1	47	3	0	15	0	0	0	stim001_stimuli_original_animals_birds_1.png	Y	0	0	0	128.695768004283	128.895782681648
38849.5	100	184	5	1	47	4	7	14	1	0	0	stim008_stimuli_original_animals_fish_4.png	V	0	0	0	129.09579199506	129.295797651634
38949.5	100	185	5	1	47	5	14	12	0	0	0	stim015_stimuli_original_vehicles_planes_3.png	T	0	0	0	129.495803064201	129.695798724424
39049.5	100	186	5	1	47	6	7	5	1	0	0	stim008_stimuli_original_animals_fish_4.png	F	0	0	0	129.895799504593	130.095806867816
39149.5	100	187	5	1	47	7	15	0	0	0	0	stim016_stimuli_original_vehicles_planes_4.png	A	0	0	0	130.29583056597	130.495810622349
39249.5	100	188	5	1	47	8	10	7	0	0	0	stim011_stimuli_original_vehicles_boats_3.png	J	0	0	0	130.695839684457	130.895839245524
39349.5	100	189	5	1	47	9	13	12	0	1	0	stim014_stimuli_original_vehicles_planes_2.png	T	0	0	0	131.095854897983	131.295837148558
39449.5	100	190	5	1	47	10	7	10	0	0	0	stim008_stimuli_original_animals_fish_4.png	Q	0	0	0	131.495858652983	131.695865528192
39549.5	100	191	5	1	47	11	5	12	0	1	1	stim006_stimuli_original_animals_fish_2.png	T	0	0	0	131.895869234111	132.095857092179
39649.5	100	192	5	1	47	12	11	13	0	0	0	stim012_stimuli_original_vehicles_boats_4.png	U	0	0	0	132.295850070659	132.496079788078
39749.5	100	193	5	1	47	13	3	4	0	0	0	stim004_stimuli_original_animals_birds_4.png	E	0	0	0	132.695891859476	132.895871915855
39849.5	100	194	5	1	47	14	6	3	0	0	0	stim007_stimuli_original_animals_fish_3.png	D	0	0	0	133.095882692374	133.29587201355
39949.5	100	195	5	1	47	15	1	11	0	0	0	stim002_stimuli_original_animals_birds_2.png	R	0	0	0	133.495887422469	133.695915265474
40049.5	100	196	5	1	47	16	12	9	0	0	0	stim013_stimuli_original_vehicles_planes_1.png	L	0	0	0	133.895890445448	134.095907561015
40149.5	100	197	5	1	47	17	4	8	0	0	0	stim005_stimuli_original_animals_fish_1.png	K	0	0	0	134.295912729576	134.495917898603
40249.5	100	198	5	1	47	18	8	4	0	0	0	stim009_stimuli_original_vehicles_boats_1.png	E	0	0	0	134.69594403496	134.895926529542
40349.5	100	199	5	1	47	19	9	12	0	0	0	stim010_stimuli_original_vehicles_boats_2.png	T	0	0	0	135.095930479001	135.295958322007
40449.5	100	200	5	1	47	20	11	1	0	0	0	stim012_stimuli_original_vehicles_boats_4.png	B	0	0	0	135.495952031575	135.695941840764
40549.5	100	201	5	1	47	21	3	6	0	0	0	stim004_stimuli_original_animals_birds_4.png	G	0	0	0	135.895975778811	136.095949496143
40649.5	100	202	5	1	47	22	4	3	0	0	0	stim005_stimuli_original_animals_fish_1.png	D	0	0	0	136.295967586804	136.495994454715
40749.5	100	203	5	1	47	23	13	11	0	0	0	stim014_stimuli_original_vehicles_planes_2.png	R	0	0	0	136.695977924392	136.895975291263
40849.5	100	204	5	1	47	24	12	5	1	0	0	stim013_stimuli_original_vehicles_planes_1.png	F	0	0	0	137.095977046527	137.295989529695
40949.5	100	205	5	1	47	25	10	7	0	0	0	stim011_stimuli_original_vehicles_boats_3.png	J	0	0	0	137.495989090763	137.696020834614
41049.5	100	206	5	1	47	26	12	13	1	0	0	stim013_stimuli_original_vehicles_planes_1.png	U	0	0	0	137.8960140571	138.09603092866
41149.5	100	207	5	1	47	27	7	10	0	0	0	stim008_stimuli_original_animals_fish_4.png	Q	0	0	0	138.296040973626	138.496041509788
41249.5	100	208	5	1	47	28	0	15	0	0	0	stim001_stimuli_original_animals_birds_1.png	Y	0	0	0	138.696047166362	138.896044533234
41349.5	100	209	5	1	47	29	5	7	0	1	0	stim006_stimuli_original_animals_fish_2.png	J	0	0	0	139.09605165245	139.296046093572
41449.5	100	210	5	1	47	30	12	14	0	0	0	stim013_stimuli_original_vehicles_planes_1.png	V	0	0	0	139.496073449031	139.696051067207
41549.5	100	211	5	1	47	31	14	7	0	1	1	stim015_stimuli_original_vehicles_planes_3.png	J	0	0	0	139.896053554025	140.096065061633
41649.5	100	212	5	1	47	32	15	0	0	0	0	stim016_stimuli_original_vehicles_planes_4.png	A	0	0	0	140.296092905104	140.496095879469
41749.5	100	213	5	1	47	33	2	2	0	0	0	stim003_stimuli_original_animals_birds_3.png	C	0	0	0	140.696101535577	140.896079885308
41849.5	100	214	5	1	47	34	6	9	0	0	0	stim007_stimuli_original_animals_fish_3.png	L	0	0	0	141.096090417821	141.296089979354
41949.5	100	215	5	1	47	35	1	8	0	0	0	stim002_stimuli_original_animals_birds_2.png	K	0	0	0	141.496093441267	141.696138350759
48766.5	100	216	6	0	9	0	10	1	0	0	0	stim011_stimuli_original_vehicles_boats_3.png	B	0	0	0	168.763497777749	168.963494657073
48866.5	100	217	6	0	9	1	2	11	0	0	0	stim003_stimuli_original_animals_birds_3.png	R	0	0	0	169.163498118985	169.363518403843
48966.5	100	218	6	0	9	2	13	5	0	0	0	stim014_stimuli_original_vehicles_planes_2.png	F	0	0	0	169.563521378674	169.763518257532
49066.5	100	219	6	0	9	3	0	7	0	0	0	stim001_stimuli_original_animals_birds_1.png	J	0	0	0	169.963520256802	170.163516648579
49166.5	100	220	6	0	9	4	8	8	0	0	0	stim009_stimuli_original_vehicles_boats_1.png	K	0	0	0	170.363541078288	170.563559412956
49266.5	100	221	6	0	9	5	3	2	0	0	0	stim004_stimuli_original_animals_birds_4.png	C	0	0	0	170.763546783477	170.963549514301
49366.5	100	222	6	0	9	6	7	4	0	0	0	stim008_stimuli_original_animals_fish_4.png	E	0	0	0	171.163555414416	171.363561802078
49466.5	100	223	6	0	9	7	9	15	0	0	0	stim010_stimuli_original_vehicles_boats_2.png	Y	0	0	0	171.563562338706	171.763558974024
49566.5	100	224	6	0	9	8	4	13	1	0	0	stim005_stimuli_original_animals_fish_1.png	U	0	0	0	171.963577552233	172.163576138206
49666.5	100	225	6	0	9	9	6	10	0	0	0	stim007_stimuli_original_animals_fish_3.png	Q	0	0	0	172.363580087665	172.563583306037
49766.5	100	226	6	0	9	10	4	0	1	0	1	stim005_stimuli_original_animals_fish_1.png	A	0	0	0	172.763584573753	172.963591936976
49866.5	100	227	6	0	9	11	12	3	0	0	0	stim013_stimuli_original_vehicles_planes_1.png	D	0	0	0	173.163599056192	173.363634701353
49966.5	100	228	6	0	9	12	11	15	0	1	0	stim012_stimuli_original_vehicles_boats_4.png	Y	0	0	0	173.56361353863	173.763607979752
50066.5	100	229	6	0	9	13	14	9	0	0	0	stim015_stimuli_original_vehicles_planes_3.png	L	0	0	0	173.963611929212	174.163622218184
50166.5	100	230	6	0	9	14	15	15	0	1	0	stim016_stimuli_original_vehicles_planes_4.png	Y	0	0	0	174.363655181136	174.563642308116
50266.5	100	231	6	0	9	15	1	6	0	0	0	stim002_stimuli_original_animals_birds_2.png	G	0	0	0	174.764102912974	174.963675563689
50366.5	100	232	6	0	9	16	5	12	0	0	0	stim006_stimuli_original_animals_fish_2.png	T	0	0	0	175.163679025602	175.36368248798
50466.5	100	233	6	0	9	17	4	14	0	0	0	stim005_stimuli_original_animals_fish_1.png	V	0	0	0	175.563693264034	175.763669663575
50566.5	100	234	6	0	9	18	14	4	0	0	0	stim015_stimuli_original_vehicles_planes_3.png	E	0	0	0	175.96367873298	176.163701700047
50666.5	100	235	6	0	9	19	12	5	0	0	0	stim013_stimuli_original_vehicles_planes_1.png	F	0	0	0	176.363711257465	176.56371130608
50766.5	100	236	6	0	9	20	6	1	0	0	0	stim007_stimuli_original_animals_fish_3.png	B	f	176.955480640754	0	176.763718912844	176.96372310631
50866.5	100	237	6	0	9	21	15	15	1	0	0	stim016_stimuli_original_vehicles_planes_4.png	Y	0	0	0	177.163721204735	177.363734418992
50966.5	100	238	6	0	9	22	9	14	0	0	0	stim010_stimuli_original_vehicles_boats_2.png	V	0	0	0	177.56374397641	177.763718912844
51066.5	100	239	6	0	9	23	15	11	1	0	1	stim016_stimuli_original_vehicles_planes_4.png	R	0	0	0	177.963726519607	178.163735833485
51166.5	100	240	6	0	9	24	3	12	0	0	0	stim004_stimuli_original_animals_birds_4.png	T	0	0	0	178.363739782944	178.563763725106
51266.5	100	241	6	0	9	25	0	4	0	1	0	stim001_stimuli_original_animals_birds_1.png	E	0	0	0	178.763779621571	178.963768698741
51366.5	100	242	6	0	9	26	10	6	0	0	0	stim011_stimuli_original_vehicles_boats_3.png	G	0	0	0	179.163759970572	179.363762213383
51466.5	100	243	6	0	9	27	13	4	0	1	0	stim014_stimuli_original_vehicles_planes_2.png	E	0	0	0	179.563766894396	179.763766699471
51566.5	100	244	6	0	9	28	15	9	0	0	0	stim016_stimuli_original_vehicles_planes_4.png	L	0	0	0	179.963777231984	180.164209067356
51666.5	100	245	6	0	9	29	4	7	0	0	0	stim005_stimuli_original_animals_fish_1.png	J	0	0	0	180.363818533253	180.563801027834
51766.5	100	246	6	0	9	30	2	3	0	0	0	stim003_stimuli_original_animals_birds_3.png	D	0	0	0	180.763799613807	180.963795761578
51866.5	100	247	6	0	9	31	8	8	0	0	0	stim009_stimuli_original_vehicles_boats_1.png	K	0	0	0	181.163805563003	181.363816339057
51966.5	100	248	6	0	9	32	7	0	0	0	0	stim008_stimuli_original_animals_fish_4.png	A	0	0	0	181.563821264077	181.763817168307
52066.5	100	249	6	0	9	33	5	13	0	0	0	stim006_stimuli_original_animals_fish_2.png	U	0	0	0	181.963832333218	182.163834820036
52166.5	100	250	6	0	9	34	11	2	0	0	0	stim012_stimuli_original_vehicles_boats_4.png	C	0	0	0	182.363844133448	182.563847839367
52266.5	100	251	6	0	9	35	1	10	0	0	0	stim002_stimuli_original_animals_birds_2.png	Q	0	0	0	182.763850082178	182.963855007198
52995.75	100	252	7	1	43	0	13	4	0	0	0	stim014_stimuli_original_vehicles_planes_2.png	E	0	0	0	185.680625244044	185.880609932821
53095.75	100	253	7	1	43	1	14	2	0	0	0	stim015_stimuli_original_vehicles_planes_3.png	C	0	0	0	186.080631924793	186.280607348774
53195.75	100	254	7	1	43	2	11	7	0	0	0	stim012_stimuli_original_vehicles_boats_4.png	J	0	0	0	186.480645675678	186.680634752847
53295.75	100	255	7	1	43	3	5	10	0	0	0	stim006_stimuli_original_animals_fish_2.png	Q	0	0	0	186.88062748732	187.080628755037
53395.75	100	256	7	1	43	4	6	11	0	0	0	stim007_stimuli_original_animals_fish_3.png	R	0	0	0	187.28063928755	187.481087701861
53495.75	100	257	7	1	43	5	9	9	0	1	0	stim010_stimuli_original_vehicles_boats_2.png	L	0	0	0	187.680647430941	187.880649917759
53595.75	100	258	7	1	43	6	5	8	1	0	0	stim006_stimuli_original_animals_fish_2.png	K	0	0	0	188.080656792969	188.280693657231
53695.75	100	259	7	1	43	7	2	9	0	1	1	stim003_stimuli_original_animals_birds_3.png	L	0	0	0	188.480666399468	188.680674981326
53795.75	100	260	7	1	43	8	5	3	1	0	0	stim006_stimuli_original_animals_fish_2.png	D	0	0	0	188.880675273947	189.080686538015
53895.75	100	261	7	1	43	9	7	12	0	0	0	stim008_stimuli_original_animals_fish_4.png	T	0	0	0	189.280727302656	189.480722475331
53995.75	100	262	7	1	43	10	8	15	0	0	0	stim009_stimuli_original_vehicles_boats_1.png	Y	0	0	0	189.680703263264	189.880704774987
54095.75	100	263	7	1	43	11	15	9	0	0	0	stim016_stimuli_original_vehicles_planes_4.png	L	0	0	0	190.080715795048	190.280718769412
54195.75	100	264	7	1	43	12	1	0	0	0	0	stim002_stimuli_original_animals_birds_2.png	A	0	0	0	190.48072515754	190.680725937709
54295.75	100	265	7	1	43	13	10	1	0	0	0	stim011_stimuli_original_vehicles_boats_3.png	B	0	0	0	190.880735494662	191.080738225486
54395.75	100	266	7	1	43	14	12	6	0	0	0	stim013_stimuli_original_vehicles_planes_1.png	G	0	0	0	191.280779965688	191.480782696512
54495.75	100	267	7	1	43	15	4	13	0	0	0	stim005_stimuli_original_animals_fish_1.png	U	0	0	0	191.68078640243	191.880773528945
54595.75	100	268	7	1	43	16	0	5	0	0	0	stim001_stimuli_original_animals_birds_1.png	F	0	0	0	192.08076845808	192.280797520187
54695.75	100	269	7	1	43	17	3	14	0	0	0	stim004_stimuli_original_animals_birds_4.png	V	0	0	0	192.480801957194	192.680804932024
54795.75	100	270	7	1	43	18	14	3	0	0	0	stim015_stimuli_original_vehicles_planes_3.png	D	0	0	0	192.880794009194	193.080820145551
54895.75	100	271	7	1	43	19	5	0	0	0	0	stim006_stimuli_original_animals_fish_2.png	A	0	0	0	193.28080312768	193.480795374606
54995.75	100	272	7	1	43	20	13	4	0	0	0	stim014_stimuli_original_vehicles_planes_2.png	E	0	0	0	193.680824192706	193.880807418842
55095.75	100	273	7	1	43	21	6	12	0	0	0	stim007_stimuli_original_animals_fish_3.png	T	0	0	0	194.080815513153	194.280848720111
55195.75	100	274	7	1	43	22	1	10	0	0	0	stim002_stimuli_original_animals_birds_2.png	Q	0	0	0	194.480823900085	194.680828825105
55295.75	100	275	7	1	43	23	0	1	0	0	0	stim001_stimuli_original_animals_birds_1.png	B	0	0	0	194.880857887212	195.08084550174
55395.75	100	276	7	1	43	24	9	15	0	0	0	stim010_stimuli_original_vehicles_boats_2.png	Y	0	0	0	195.280890898779	195.480851938482
55495.75	100	277	7	1	43	25	15	8	0	0	0	stim016_stimuli_original_vehicles_planes_4.png	K	0	0	0	195.680856131949	195.880894458853
55595.75	100	278	7	1	43	26	12	7	0	0	0	stim013_stimuli_original_vehicles_planes_1.png	J	0	0	0	196.080900602508	196.280877489597
55695.75	100	279	7	1	43	27	3	5	0	1	0	stim004_stimuli_original_animals_birds_4.png	F	0	0	0	196.480884608813	196.680905868765
55795.75	100	280	7	1	43	28	9	2	1	0	0	stim010_stimuli_original_vehicles_boats_2.png	C	0	0	0	196.880892995745	197.0809354675
55895.75	100	281	7	1	43	29	8	5	0	1	1	stim009_stimuli_original_vehicles_boats_1.png	F	0	0	0	197.280937222764	197.480933126993
55995.75	100	282	7	1	43	30	9	9	1	0	0	stim010_stimuli_original_vehicles_boats_2.png	L	f	197.872709532268	1	197.680944634601	197.880944439676
56095.75	100	283	7	1	43	31	11	6	0	0	0	stim012_stimuli_original_vehicles_boats_4.png	G	0	0	0	198.081219017971	198.28096404206
56195.75	100	284	7	1	43	32	10	5	0	0	0	stim011_stimuli_original_vehicles_boats_3.png	F	0	0	0	198.480968479067	198.680948779453
56295.75	100	285	7	1	43	33	7	11	0	0	0	stim008_stimuli_original_animals_fish_4.png	R	0	0	0	198.880972234067	199.080969600473
56395.75	100	286	7	1	43	34	2	14	0	0	0	stim003_stimuli_original_animals_birds_3.png	V	0	0	0	199.280959165655	199.480956044979
56495.75	100	287	7	1	43	35	4	13	0	0	0	stim005_stimuli_original_animals_fish_1.png	U	0	0	0	199.680963407736	199.880968089215
57645.75	100	288	8	0	4	0	6	15	0	0	0	stim007_stimuli_original_animals_fish_3.png	Y	0	0	0	204.28109447984	204.481103793252
57745.75	100	289	8	0	4	1	8	7	0	0	0	stim009_stimuli_original_vehicles_boats_1.png	J	0	0	0	204.681133342907	204.881111692637
57845.75	100	290	8	0	4	2	9	2	0	0	0	stim010_stimuli_original_vehicles_boats_2.png	C	0	0	0	205.081118324306	205.281134220771
57945.75	100	291	8	0	4	3	12	4	0	0	0	stim013_stimuli_original_vehicles_planes_1.png	E	0	0	0	205.481154993176	205.681144558359
58045.75	100	292	8	0	4	4	13	5	0	0	0	stim014_stimuli_original_vehicles_planes_2.png	F	0	0	0	205.881143631879	206.081147825345
58145.75	100	293	8	0	4	5	0	13	1	0	0	stim001_stimuli_original_animals_birds_1.png	U	0	0	0	206.281136414967	206.481153774541
58245.75	100	294	8	0	4	6	11	8	0	1	0	stim012_stimuli_original_vehicles_boats_4.png	K	0	0	0	206.68117235275	206.881163868122
58346	100	295	8	0	4	7	0	11	1	0	1	stim001_stimuli_original_animals_birds_1.png	R	0	0	0	207.081641783472	207.281183714047
58445.75	100	296	8	0	4	8	3	8	0	1	0	stim004_stimuli_original_animals_birds_4.png	K	f	207.672978404909	1	207.481206437107	207.681207217276
58545.75	100	297	8	0	4	9	10	9	0	0	0	stim011_stimuli_original_vehicles_boats_3.png	L	0	0	0	207.881198245101	208.081200244371
58645.75	100	298	8	0	4	10	14	12	0	0	0	stim015_stimuli_original_vehicles_planes_3.png	T	0	0	0	208.281211508438	208.481227892451
58745.75	100	299	8	0	4	11	2	1	0	0	0	stim003_stimuli_original_animals_birds_3.png	B	0	0	0	208.681232573465	208.881236279383
58845.75	100	300	8	0	4	12	0	8	0	0	0	stim001_stimuli_original_animals_birds_1.png	K	0	0	0	209.081229988951	209.281226868276
58945.75	100	301	8	0	4	13	1	6	0	0	0	stim002_stimuli_original_animals_birds_2.png	G	f	209.673025947995	0	209.481252517086	209.681245008018
59045.75	100	302	8	0	4	14	15	3	0	0	0	stim016_stimuli_original_vehicles_planes_4.png	D	0	0	0	209.88124554418	210.081267535686
59145.75	100	303	8	0	4	15	7	14	0	0	0	stim008_stimuli_original_animals_fish_4.png	V	0	0	0	210.281276605558	210.48125032289
59245.75	100	304	8	0	4	16	4	10	0	0	0	stim005_stimuli_original_animals_fish_1.png	Q	0	0	0	210.681262806058	210.881274070125
59345.75	100	305	8	0	4	17	5	0	0	0	0	stim006_stimuli_original_animals_fish_2.png	A	0	0	0	211.081278994679	211.281284651253
59445.75	100	306	8	0	4	18	0	5	0	0	0	stim001_stimuli_original_animals_birds_1.png	F	0	0	0	211.481293964665	211.681318881921
59545.75	100	307	8	0	4	19	10	4	0	0	0	stim011_stimuli_original_vehicles_boats_3.png	E	0	0	0	211.881300644949	212.081319223624
59645.75	100	308	8	0	4	20	14	7	0	0	0	stim015_stimuli_original_vehicles_planes_3.png	J	0	0	0	212.28132926859	212.481529728509
59745.75	100	309	8	0	4	21	3	15	0	0	0	stim004_stimuli_original_animals_birds_4.png	Y	0	0	0	212.681323758326	212.881326489151
59845.75	100	310	8	0	4	22	6	1	0	0	0	stim007_stimuli_original_animals_fish_3.png	B	0	0	0	213.081331170164	213.281332925428
59945.75	100	311	8	0	4	23	8	0	0	0	0	stim009_stimuli_original_vehicles_boats_1.png	A	0	0	0	213.4813432144	213.68136301171
60045.75	100	312	8	0	4	24	1	2	0	0	0	stim002_stimuli_original_animals_birds_2.png	C	0	0	0	213.881371106021	214.081376518589
60145.75	100	313	8	0	4	25	12	14	0	0	0	stim013_stimuli_original_vehicles_planes_1.png	V	0	0	0	214.281363158021	214.481389537919
60245.75	100	314	8	0	4	26	9	10	0	0	0	stim010_stimuli_original_vehicles_boats_2.png	Q	0	0	0	214.681366425008	214.881364766974
60345.75	100	315	8	0	4	27	8	3	1	0	0	stim009_stimuli_original_vehicles_boats_1.png	D	0	0	0	215.081373592839	215.281378517859
60445.75	100	316	8	0	4	28	11	0	0	1	0	stim012_stimuli_original_vehicles_boats_4.png	A	0	0	0	215.481395145878	215.681415186729
60545.75	100	317	8	0	4	29	8	11	1	0	1	stim009_stimuli_original_vehicles_boats_1.png	R	0	0	0	215.881432789844	216.081426987424
60645.75	100	318	8	0	4	30	13	0	0	1	0	stim014_stimuli_original_vehicles_planes_2.png	A	0	0	0	216.281421672087	216.481417576317
60745.75	100	319	8	0	4	31	5	13	0	0	0	stim006_stimuli_original_animals_fish_2.png	U	0	0	0	216.681432984769	216.881451806985
60845.75	100	320	8	0	4	32	4	12	0	0	0	stim005_stimuli_original_animals_fish_1.png	T	0	0	0	217.081436251756	217.281437763479
60945.75	100	321	8	0	4	33	2	9	0	0	0	stim003_stimuli_original_animals_birds_3.png	L	0	0	0	217.481456098147	217.681454440113
61046	100	322	8	0	4	34	7	8	0	0	0	stim008_stimuli_original_animals_fish_4.png	K	0	0	0	217.881466679275	218.081461851951
61146	100	323	8	0	4	35	15	6	0	0	0	stim016_stimuli_original_vehicles_planes_4.png	G	0	0	0	218.281468239613	218.481476821937
61808.5	100	324	9	1	32	0	2	3	0	0	0	stim003_stimuli_original_animals_birds_3.png	D	0	0	0	220.931545137428	221.131550061982
61908.5	100	325	9	1	32	1	1	9	0	0	0	stim002_stimuli_original_animals_birds_2.png	L	0	0	0	221.331554011907	221.531554060522
62008.5	100	326	9	1	32	2	9	0	0	0	0	stim010_stimuli_original_vehicles_boats_2.png	A	0	0	0	221.731562886387	221.931567811407
62108.5	100	327	9	1	32	3	6	5	0	0	0	stim007_stimuli_original_animals_fish_3.png	F	0	0	0	222.131569567136	222.331572541501
62208.5	100	328	9	1	32	4	10	15	1	0	0	stim011_stimuli_original_vehicles_boats_3.png	Y	0	0	0	222.531580392271	222.731582147535
62308.5	100	329	9	1	32	5	11	7	0	0	0	stim012_stimuli_original_vehicles_boats_4.png	J	0	0	0	222.931595118251	223.131586389616
62408.5	100	330	9	1	32	6	10	12	1	0	0	stim011_stimuli_original_vehicles_boats_3.png	T	0	0	0	223.331629592925	223.531635737047
62508.5	100	331	9	1	32	7	0	13	0	0	0	stim001_stimuli_original_animals_birds_1.png	U	0	0	0	223.731637979858	223.931647049729
62608.5	100	332	9	1	32	8	8	10	0	0	0	stim009_stimuli_original_vehicles_boats_1.png	Q	0	0	0	224.131646854337	224.331650560256
62708.5	100	333	9	1	32	9	14	8	0	0	0	stim015_stimuli_original_vehicles_planes_3.png	K	0	0	0	224.531659386121	224.731645293999
62808.5	100	334	9	1	32	10	4	1	0	0	0	stim005_stimuli_original_animals_fish_1.png	B	0	0	0	224.931678988505	225.131679281127
62908.5	100	335	9	1	32	11	7	6	0	0	0	stim008_stimuli_original_animals_fish_4.png	G	0	0	0	225.331662019715	225.531667188276
63008.5	100	336	9	1	32	12	12	3	0	1	0	stim013_stimuli_original_vehicles_planes_1.png	D	0	0	0	225.731682109181	225.931707270443
63108.5	100	337	9	1	32	13	3	2	0	0	0	stim004_stimuli_original_animals_birds_4.png	C	0	0	0	226.13169366587	226.331702248193
63208.5	100	338	9	1	32	14	15	3	0	1	1	stim016_stimuli_original_vehicles_planes_4.png	D	0	0	0	226.531698151957	226.731713316869
63308.5	100	339	9	1	32	15	13	11	0	0	0	stim014_stimuli_original_vehicles_planes_2.png	R	0	0	0	226.931725556031	227.131728530861
63408.5	100	340	9	1	32	16	10	14	0	0	0	stim011_stimuli_original_vehicles_boats_3.png	V	0	0	0	227.331731505226	227.5317183882
63508.5	100	341	9	1	32	17	5	4	0	0	0	stim006_stimuli_original_animals_fish_2.png	E	0	0	0	227.731719412375	227.931721167639
63608.5	100	342	9	1	32	18	4	5	0	0	0	stim005_stimuli_original_animals_fish_1.png	F	0	0	0	228.131734869909	228.331732480321
63708.5	100	343	9	1	32	19	14	10	0	0	0	stim015_stimuli_original_vehicles_planes_3.png	Q	0	0	0	228.531742769293	228.731746231206
63808.5	100	344	9	1	32	20	11	13	0	0	0	stim012_stimuli_original_vehicles_boats_4.png	U	0	0	0	228.931760664564	229.131761201192
63908.5	100	345	9	1	32	21	3	15	1	0	0	stim004_stimuli_original_animals_birds_4.png	Y	0	0	0	229.331766126212	229.531765931286
64008.5	100	346	9	1	32	22	2	3	0	0	0	stim003_stimuli_original_animals_birds_3.png	D	0	0	0	229.731775732245	229.931801624596
64108.5	100	347	9	1	32	23	3	12	1	0	0	stim004_stimuli_original_animals_birds_4.png	T	0	0	0	230.132253940217	230.331808061339
64208.5	100	348	9	1	32	24	6	7	0	0	0	stim007_stimuli_original_animals_fish_3.png	J	0	0	0	230.53179348167	230.73182205623
64308.5	100	349	9	1	32	25	1	4	0	0	0	stim002_stimuli_original_animals_birds_2.png	E	0	0	0	230.931808451656	231.13183385646
64408.5	100	350	9	1	32	26	8	14	0	0	0	stim009_stimuli_original_vehicles_boats_1.png	V	0	0	0	231.331821958534	231.531840049196
64508.5	100	351	9	1	32	27	10	8	0	0	0	stim011_stimuli_original_vehicles_boats_3.png	K	0	0	0	231.731852775905	231.931837464683
64608.5	100	352	9	1	32	28	13	0	0	0	0	stim014_stimuli_original_vehicles_planes_2.png	A	0	0	0	232.131859212648	232.331863893662
64708.5	100	353	9	1	32	29	12	10	0	1	0	stim013_stimuli_original_vehicles_planes_1.png	Q	0	0	0	232.531868818682	232.731873256154
64808.5	100	354	9	1	32	30	7	11	0	0	0	stim008_stimuli_original_animals_fish_4.png	R	0	0	0	232.931879643817	233.131885056384
64908.5	100	355	9	1	32	31	15	10	0	1	1	stim016_stimuli_original_vehicles_planes_4.png	Q	0	0	0	233.331891444046	233.53189417487
65008.5	100	356	9	1	32	32	5	6	0	0	0	stim006_stimuli_original_animals_fish_2.png	G	0	0	0	233.731900562532	233.931887689512
65108.5	100	357	9	1	32	33	0	9	0	0	0	stim001_stimuli_original_animals_birds_1.png	L	0	0	0	234.131933574565	234.3318980271
65208.5	100	358	9	1	32	34	9	1	0	0	0	stim010_stimuli_original_vehicles_boats_2.png	B	0	0	0	234.531901489012	234.73190105008
65308.5	100	359	9	1	32	35	3	2	0	0	0	stim004_stimuli_original_animals_birds_4.png	C	0	0	0	234.931908169296	235.131918214262
66308.5	100	360	10	0	38	0	11	6	0	0	0	stim012_stimuli_original_vehicles_boats_4.png	G	0	0	0	238.932024710346	239.132022808772
66408.5	100	361	10	0	38	1	15	9	0	0	0	stim016_stimuli_original_vehicles_planes_4.png	L	0	0	0	239.332027977332	239.532029001508
66508.5	100	362	10	0	38	2	2	10	0	0	0	stim003_stimuli_original_animals_birds_3.png	Q	0	0	0	239.732040265575	239.932050798088
66608.5	100	363	10	0	38	3	8	2	0	0	0	stim009_stimuli_original_vehicles_boats_1.png	C	0	0	0	240.132054747548	240.332056746818
66708.5	100	364	10	0	38	4	10	1	0	0	0	stim011_stimuli_original_vehicles_boats_3.png	B	0	0	0	240.532069473993	240.732067328412
66808.5	100	365	10	0	38	5	9	4	0	0	0	stim010_stimuli_original_vehicles_boats_2.png	E	0	0	0	240.932071521878	241.132122039329
66908.5	100	366	10	0	38	6	4	7	0	0	0	stim005_stimuli_original_animals_fish_1.png	J	0	0	0	241.332106971648	241.53209848702
67008.5	100	367	10	0	38	7	12	11	0	0	0	stim013_stimuli_original_vehicles_planes_1.png	R	0	0	0	241.732088295743	241.932093464769
67108.5	100	368	10	0	38	8	1	14	0	0	0	stim002_stimuli_original_animals_birds_2.png	V	0	0	0	242.132107166573	242.332109897397
67208.5	100	369	10	0	38	9	0	3	0	0	0	stim001_stimuli_original_animals_birds_1.png	D	0	0	0	242.5321470052	242.732126574032
67308.5	100	370	10	0	38	10	9	10	1	1	0	stim010_stimuli_original_vehicles_boats_2.png	Q	0	0	0	242.932145639788	243.132153734565
67408.5	100	371	10	0	38	11	3	5	0	0	0	stim004_stimuli_original_animals_birds_4.png	F	0	0	0	243.332127451897	243.532160170842
67508.5	100	372	10	0	38	12	9	10	1	1	1	stim010_stimuli_original_vehicles_boats_2.png	Q	0	0	0	243.732166558504	243.93242333876
67608.5	100	373	10	0	38	13	13	13	0	0	0	stim014_stimuli_original_vehicles_planes_2.png	U	0	0	0	244.132166412659	244.33216865547
67708.5	100	374	10	0	38	14	14	12	0	0	0	stim015_stimuli_original_vehicles_planes_3.png	T	f	244.524726177566	1	244.532193085179	244.732193865348
67808.5	100	375	10	0	38	15	7	0	0	0	0	stim008_stimuli_original_animals_fish_4.png	A	0	0	0	244.932197083719	245.132180309389
67908.5	100	376	10	0	38	16	6	15	0	0	0	stim007_stimuli_original_animals_fish_3.png	Y	0	0	0	245.332212053705	245.532215515617
68008.5	100	377	10	0	38	17	5	8	0	0	0	stim006_stimuli_original_animals_fish_2.png	K	0	0	0	245.732208737638	245.93220317876
68108.5	100	378	10	0	38	18	8	5	0	0	0	stim009_stimuli_original_vehicles_boats_1.png	F	0	0	0	246.132211517077	246.332208396401
68208.5	100	379	10	0	38	19	15	6	0	0	0	stim016_stimuli_original_vehicles_planes_4.png	G	0	0	0	246.532213321421	246.732209225185
68308.5	100	380	10	0	38	20	0	7	0	0	0	stim001_stimuli_original_animals_birds_1.png	J	0	0	0	246.932215856854	247.132219806779
68408.5	100	381	10	0	38	21	12	14	0	0	0	stim013_stimuli_original_vehicles_planes_1.png	V	0	0	0	247.332249356434	247.532235020306
68508.5	100	382	10	0	38	22	13	13	0	0	0	stim014_stimuli_original_vehicles_planes_2.png	U	0	0	0	247.732238726225	247.932244382799
68608.5	100	383	10	0	38	23	10	9	1	1	0	stim011_stimuli_original_vehicles_boats_3.png	L	0	0	0	248.132264180109	248.332268617582
68708.5	100	384	10	0	38	24	5	3	0	0	0	stim006_stimuli_original_animals_fish_2.png	D	0	0	0	248.532266227994	248.732266033068
68808.5	100	385	10	0	38	25	10	9	1	1	1	stim011_stimuli_original_vehicles_boats_3.png	L	0	0	0	248.932274371386	249.132278077304
68908.5	100	386	10	0	38	26	3	0	0	0	0	stim004_stimuli_original_animals_birds_4.png	A	0	0	0	249.332308358513	249.532295972575
69008.5	100	387	10	0	38	27	14	1	0	0	0	stim015_stimuli_original_vehicles_planes_3.png	B	0	0	0	249.732301141601	249.932299727574
69108.5	100	388	10	0	38	28	11	12	0	0	0	stim012_stimuli_original_vehicles_boats_4.png	T	0	0	0	250.132337566465	250.332343223039
69208.5	100	389	10	0	38	29	7	4	0	0	0	stim008_stimuli_original_animals_fish_4.png	E	0	0	0	250.532348879613	250.73235039087
69308.5	100	390	10	0	38	30	4	9	0	0	0	stim005_stimuli_original_animals_fish_1.png	L	0	0	0	250.932356778998	251.132361460011
69408.5	100	391	10	0	38	31	1	10	0	0	0	stim002_stimuli_original_animals_birds_2.png	Q	0	0	0	251.33235224383	251.53235716885
69508.5	100	392	10	0	38	32	2	8	0	0	0	stim003_stimuli_original_animals_birds_3.png	K	0	0	0	251.732368432917	251.932386523578
69608.5	100	393	10	0	38	33	10	2	0	0	0	stim011_stimuli_original_vehicles_boats_3.png	C	0	0	0	252.13238974195	252.332373455632
69708.5	100	394	10	0	38	34	9	15	0	0	0	stim010_stimuli_original_vehicles_boats_2.png	Y	0	0	0	252.532403736375	252.732399640605
69808.5	100	395	10	0	38	35	6	11	0	0	0	stim007_stimuli_original_animals_fish_3.png	R	0	0	0	252.93238774268	253.13240461424
73421.25	100	396	11	1	5	0	5	15	0	0	0	stim006_stimuli_original_animals_fish_2.png	Y	0	0	0	267.382772522513	267.582766232546
73521.25	100	397	11	1	5	1	12	11	0	0	0	stim013_stimuli_original_vehicles_planes_1.png	R	0	0	0	267.78277383931	267.982777545229
73621.25	100	398	11	1	5	2	13	8	0	0	0	stim014_stimuli_original_vehicles_planes_2.png	K	0	0	0	268.182804900687	268.382821528241
73721.25	100	399	11	1	5	3	14	3	0	0	0	stim015_stimuli_original_vehicles_planes_3.png	D	0	0	0	268.582827184815	268.782832597382
73821.25	100	400	11	1	5	4	7	4	0	0	0	stim008_stimuli_original_animals_fish_4.png	E	0	0	0	268.982839716598	269.182824649382
73921.25	100	401	11	1	5	5	2	14	0	0	0	stim003_stimuli_original_animals_birds_3.png	V	0	0	0	269.382848835085	269.582853516098
74021.25	100	402	11	1	5	6	4	9	1	0	0	stim005_stimuli_original_animals_fish_1.png	L	0	0	0	269.782858928666	269.982862391043
74121.25	100	403	11	1	5	7	10	2	0	0	0	stim011_stimuli_original_vehicles_boats_3.png	C	0	0	0	270.182871216908	270.382852979936
74221.25	100	404	11	1	5	8	4	7	1	0	0	stim005_stimuli_original_animals_fish_1.png	J	0	0	0	270.582884723786	270.782867461909
74321.25	100	405	11	1	5	9	0	14	0	1	0	stim001_stimuli_original_animals_birds_1.png	V	0	0	0	270.982892867178	271.1828814568
74421.25	100	406	11	1	5	10	3	0	0	0	0	stim004_stimuli_original_animals_birds_4.png	A	0	0	0	271.382901985664	271.582883017138
74521.25	100	407	11	1	5	11	8	14	0	1	1	stim009_stimuli_original_vehicles_boats_1.png	V	0	0	0	271.782882090658	271.982878725976
74621.25	100	408	11	1	5	12	4	1	0	0	0	stim005_stimuli_original_animals_fish_1.png	B	0	0	0	272.182887064293	272.382908812258
74721.25	100	409	11	1	5	13	9	6	0	0	0	stim010_stimuli_original_vehicles_boats_2.png	G	f	272.575470235199	1	272.582901790272	272.782928658184
74821.25	100	410	11	1	5	14	11	12	0	0	0	stim012_stimuli_original_vehicles_boats_4.png	T	0	0	0	272.982911884319	273.182946553919
74921.25	100	411	11	1	5	15	1	13	0	0	0	stim002_stimuli_original_animals_birds_2.png	U	0	0	0	273.383339867461	273.582958354149
75021.25	100	412	11	1	5	16	15	5	0	0	0	stim016_stimuli_original_vehicles_planes_4.png	F	0	0	0	273.78293377813	273.982934558298
75121.25	100	413	11	1	5	17	6	10	0	0	0	stim007_stimuli_original_animals_fish_3.png	Q	0	0	0	274.182941433974	274.382946114987
75221.25	100	414	11	1	5	18	10	6	0	0	0	stim011_stimuli_original_vehicles_boats_3.png	G	0	0	0	274.582950796001	274.782956940122
75321.25	100	415	11	1	5	19	5	15	0	0	0	stim006_stimuli_original_animals_fish_2.png	Y	0	0	0	274.982999899425	275.182979711797
75421.25	100	416	11	1	5	20	13	1	0	0	0	stim014_stimuli_original_vehicles_planes_2.png	B	0	0	0	275.383011699654	275.582987367641
75521.25	100	417	11	1	5	21	12	11	0	0	0	stim013_stimuli_original_vehicles_planes_1.png	R	0	0	0	275.783028620295	275.98302574316
75621.25	100	418	11	1	5	22	6	9	0	0	0	stim007_stimuli_original_animals_fish_3.png	L	0	0	0	276.183012382593	276.383029254153
75721.25	100	419	11	1	5	23	1	4	0	0	0	stim002_stimuli_original_animals_birds_2.png	E	0	0	0	276.583042224869	276.783019599039
75821.25	100	420	11	1	5	24	14	8	1	0	0	stim015_stimuli_original_vehicles_planes_3.png	K	0	0	0	276.983027206268	277.183029693086
75921.25	100	421	11	1	5	25	0	3	0	0	0	stim001_stimuli_original_animals_birds_1.png	D	0	0	0	277.383070214186	277.583044175059
76021.25	100	422	11	1	5	26	14	0	1	0	0	stim015_stimuli_original_vehicles_planes_3.png	A	0	0	0	277.783045686781	277.983048661146
76121.25	100	423	11	1	5	27	7	4	0	1	0	stim008_stimuli_original_animals_fish_4.png	E	0	0	0	278.183082355652	278.383045101538
76221.25	100	424	11	1	5	28	2	10	0	0	0	stim003_stimuli_original_animals_birds_3.png	Q	0	0	0	278.583090255037	278.783566219732
76321.25	100	425	11	1	5	29	9	4	0	1	1	stim010_stimuli_original_vehicles_boats_2.png	E	0	0	0	278.983073773794	279.183108930942
76421.25	100	426	11	1	5	30	14	2	0	0	0	stim015_stimuli_original_vehicles_planes_3.png	C	f	279.57487607142	1	279.383113368414	279.583109516185
76521.25	100	427	11	1	5	31	4	7	0	0	0	stim005_stimuli_original_animals_fish_1.png	J	0	0	0	279.78310468886	279.983125948813
76621.25	100	428	11	1	5	32	3	14	0	0	0	stim004_stimuli_original_animals_birds_4.png	V	0	0	0	280.183121121489	280.383141406346
76721.25	100	429	11	1	5	33	8	13	0	0	0	stim009_stimuli_original_vehicles_boats_1.png	U	0	0	0	280.583141942974	280.78314223513
76821.25	100	430	11	1	5	34	11	12	0	0	0	stim012_stimuli_original_vehicles_boats_4.png	T	0	0	0	280.983148866799	281.183155986015
76921.25	100	431	11	1	5	35	15	5	0	0	0	stim016_stimuli_original_vehicles_planes_4.png	F	0	0	0	281.383159448393	281.583164129406
77725.5	100	432	12	0	15	0	9	8	0	0	0	stim010_stimuli_original_vehicles_boats_2.png	K	0	0	0	284.599926515482	284.799900232814
77825.5	100	433	12	0	15	1	2	15	0	0	0	stim003_stimuli_original_animals_birds_3.png	Y	0	0	0	284.999901012983	285.199907644652
77925.5	100	434	12	0	15	2	4	6	0	0	0	stim005_stimuli_original_animals_fish_1.png	G	0	0	0	285.399938413408	285.599927003495
78025.5	100	435	12	0	15	3	10	7	0	0	0	stim011_stimuli_original_vehicles_boats_3.png	J	0	0	0	285.799920469057	285.99993100157
78125.5	100	436	12	0	15	4	15	1	1	0	0	stim016_stimuli_original_vehicles_planes_4.png	B	0	0	0	286.199961526785	286.400329483673
78225.5	100	437	12	0	15	5	3	0	0	0	0	stim004_stimuli_original_animals_birds_4.png	A	0	0	0	286.599944313522	286.799971181434
78325.5	100	438	12	0	15	6	15	13	1	0	1	stim016_stimuli_original_vehicles_planes_4.png	U	0	0	0	286.999975131359	287.199979080819
78425.5	100	439	12	0	15	7	11	8	0	1	0	stim012_stimuli_original_vehicles_boats_4.png	K	0	0	0	287.399986931589	287.599989662413
78525.5	100	440	12	0	15	8	14	9	0	0	0	stim015_stimuli_original_vehicles_planes_3.png	L	0	0	0	287.799983859528	288.000001219101
78625.5	100	441	12	0	15	9	7	8	0	1	0	stim008_stimuli_original_animals_fish_4.png	K	0	0	0	288.19999907352	288.400009849574
78725.5	100	442	12	0	15	10	15	3	0	0	0	stim016_stimuli_original_vehicles_planes_4.png	D	0	0	0	288.600014774594	288.800015554763
78825.5	100	443	12	0	15	11	12	2	0	0	0	stim013_stimuli_original_vehicles_planes_1.png	C	0	0	0	289.000040716026	289.200020284858
78925.5	100	444	12	0	15	12	5	14	0	0	0	stim006_stimuli_original_animals_fish_2.png	V	0	0	0	289.400035205763	289.600030865986
79025.5	100	445	12	0	15	13	13	5	0	0	0	stim014_stimuli_original_vehicles_planes_2.png	F	0	0	0	289.800038229208	290.000038277823
79125.5	100	446	12	0	15	14	8	10	0	0	0	stim009_stimuli_original_vehicles_boats_1.png	Q	f	290.391814927105	0	290.200047103688	290.400050078519
79225.5	100	447	12	0	15	15	0	4	0	0	0	stim001_stimuli_original_animals_birds_1.png	E	0	0	0	290.600083529018	290.800073581748
79325.5	100	448	12	0	15	16	6	12	0	0	0	stim007_stimuli_original_animals_fish_3.png	T	0	0	0	291.000064121559	291.200068559032
79425.5	100	449	12	0	15	17	1	11	0	0	0	stim002_stimuli_original_animals_birds_2.png	R	0	0	0	291.40008299239	291.600084748119
79525.5	100	450	12	0	15	18	11	1	0	0	0	stim012_stimuli_original_vehicles_boats_4.png	B	0	0	0	291.800110396929	292.00009191595
79625.5	100	451	12	0	15	19	12	6	0	0	0	stim013_stimuli_original_vehicles_planes_1.png	G	0	0	0	292.20009976672	292.400097133592
79725.5	100	452	12	0	15	20	4	0	0	0	0	stim005_stimuli_original_animals_fish_1.png	A	0	0	0	292.600097182207	292.800097230822
79825.5	100	453	12	0	15	21	10	8	0	0	0	stim011_stimuli_original_vehicles_boats_3.png	K	0	0	0	293.000137020834	293.200110250618
79925.5	100	454	12	0	15	22	5	13	0	0	0	stim006_stimuli_original_animals_fish_2.png	U	0	0	0	293.400151502807	293.600153258536
80025.5	100	455	12	0	15	23	14	5	0	0	0	stim015_stimuli_original_vehicles_planes_3.png	F	0	0	0	293.8001550138	294.000135314185
80125.5	100	456	12	0	15	24	2	12	0	0	0	stim003_stimuli_original_animals_birds_3.png	T	0	0	0	294.200169739779	294.400144188665
80225.5	100	457	12	0	15	25	3	15	0	0	0	stim004_stimuli_original_animals_birds_4.png	Y	0	0	0	294.600152526982	294.80015208805
80325.5	100	458	12	0	15	26	8	7	1	0	0	stim009_stimuli_original_vehicles_boats_1.png	J	0	0	0	295.000195291359	295.200173153076
80425.5	100	459	12	0	15	27	9	14	0	0	0	stim010_stimuli_original_vehicles_boats_2.png	V	0	0	0	295.400215137284	295.600206165109
80525.5	100	460	12	0	15	28	8	11	1	0	1	stim009_stimuli_original_vehicles_boats_1.png	R	0	0	0	295.800185977481	296.000185051002
80625.5	100	461	12	0	15	29	13	15	0	1	0	stim014_stimuli_original_vehicles_planes_2.png	Y	0	0	0	296.200205336325	296.400230009574
80725.5	100	462	12	0	15	30	0	3	0	0	0	stim001_stimuli_original_animals_birds_1.png	D	0	0	0	296.600238835439	296.800225962419
80825.5	100	463	12	0	15	31	1	15	0	1	0	stim002_stimuli_original_animals_birds_2.png	Y	0	0	0	297.000617812853	297.200219233055
80925.5	100	464	12	0	15	32	7	10	0	0	0	stim008_stimuli_original_animals_fish_4.png	Q	0	0	0	297.400228790473	297.600232983939
81025.5	100	465	12	0	15	33	6	4	0	0	0	stim007_stimuli_original_animals_fish_3.png	E	0	0	0	297.800275455695	298.00023503229
81125.5	100	466	12	0	15	34	15	2	0	0	0	stim016_stimuli_original_vehicles_planes_4.png	C	0	0	0	298.200294326525	298.400256584864
81225.5	100	467	12	0	15	35	8	9	0	0	0	stim009_stimuli_original_vehicles_boats_1.png	L	0	0	0	298.60025785258	298.800265215803
83329.75	100	468	13	1	38	0	11	6	0	0	0	stim012_stimuli_original_vehicles_boats_4.png	G	0	0	0	307.017164184246	307.217182762455
83429.75	100	469	13	1	38	1	15	9	0	0	0	stim016_stimuli_original_vehicles_planes_4.png	L	0	0	0	307.417172327172	307.617176520638
83529.75	100	470	13	1	38	2	2	10	0	0	0	stim003_stimuli_original_animals_birds_3.png	Q	0	0	0	307.817207045853	308.017203193624
83629.75	100	471	13	1	38	3	8	2	0	0	0	stim009_stimuli_original_vehicles_boats_1.png	C	0	0	0	308.217215920333	308.41721523786
83729.75	100	472	13	1	38	4	10	1	0	0	0	stim011_stimuli_original_vehicles_boats_3.png	B	0	0	0	308.617228696123	308.81720948359
83829.75	100	473	13	1	38	5	9	4	0	0	0	stim010_stimuli_original_vehicles_boats_2.png	E	0	0	0	309.017241471447	309.217212994583
83929.75	100	474	13	1	38	6	4	7	0	0	0	stim005_stimuli_original_animals_fish_1.png	J	0	0	0	309.417219138704	309.617233084515
84029.75	100	475	13	1	38	7	12	11	0	0	0	stim013_stimuli_original_vehicles_planes_1.png	R	0	0	0	309.817725872155	310.017252686899
84129.75	100	476	13	1	38	8	1	14	0	0	0	stim002_stimuli_original_animals_birds_2.png	V	0	0	0	310.21724883467	310.417266437784
84229.75	100	477	13	1	38	9	0	3	0	0	0	stim001_stimuli_original_animals_birds_1.png	D	0	0	0	310.617279896047	310.817277018912
84329.75	100	478	13	1	38	10	9	10	1	1	0	stim010_stimuli_original_vehicles_boats_2.png	Q	0	0	0	311.017285113689	311.217272240203
84429.75	100	479	13	1	38	11	3	5	0	0	0	stim004_stimuli_original_animals_birds_4.png	F	0	0	0	311.417294963263	311.617298181634
84529.75	100	480	13	1	38	12	9	10	1	1	1	stim010_stimuli_original_vehicles_boats_2.png	Q	0	0	0	311.817308470607	312.017292671371
84629.75	100	481	13	1	38	13	13	13	0	0	0	stim014_stimuli_original_vehicles_planes_2.png	U	0	0	0	312.217317589093	312.417326414958
84729.75	100	482	13	1	38	14	14	12	0	0	0	stim015_stimuli_original_vehicles_planes_3.png	T	f	312.609943182673	1	312.617328657769	312.817333095241
84829.75	100	483	13	1	38	15	7	0	0	0	0	stim008_stimuli_original_animals_fish_4.png	A	0	0	0	313.017342408653	313.217336606234
84929.75	100	484	13	1	38	16	6	15	0	0	0	stim007_stimuli_original_animals_fish_3.png	Y	0	0	0	313.417346163187	313.617353282403
85029.75	100	485	13	1	38	17	5	8	0	0	0	stim006_stimuli_original_animals_fish_2.png	K	0	0	0	313.81736162072	314.01733094966
85129.75	100	486	13	1	38	18	8	5	0	0	0	stim009_stimuli_original_vehicles_boats_1.png	F	0	0	0	314.217349284329	314.417369812727
85229.75	100	487	13	1	38	19	15	6	0	0	0	stim016_stimuli_original_vehicles_planes_4.png	G	0	0	0	314.617379126605	314.817378687672
85329.75	100	488	13	1	38	20	0	7	0	0	0	stim001_stimuli_original_animals_birds_1.png	J	0	0	0	315.01759840874	315.217375128064
85429.75	100	489	13	1	38	21	12	14	0	0	0	stim013_stimuli_original_vehicles_planes_1.png	V	0	0	0	315.417366155889	315.617368886247
85529.75	100	490	13	1	38	22	13	13	0	0	0	stim014_stimuli_original_vehicles_planes_2.png	U	0	0	0	315.817412577104	316.017416283023
85629.75	100	491	13	1	38	23	10	9	1	1	0	stim011_stimuli_original_vehicles_boats_3.png	L	0	0	0	316.217413162347	316.417421256658
85729.75	100	492	13	1	38	24	5	3	0	0	0	stim006_stimuli_original_animals_fish_2.png	D	0	0	0	316.617433739826	316.817407457158
85829.75	100	493	13	1	38	25	10	9	1	1	1	stim011_stimuli_original_vehicles_boats_3.png	L	0	0	0	317.017447734252	317.21744827088
85929.75	100	494	13	1	38	26	3	0	0	0	0	stim004_stimuli_original_animals_birds_4.png	A	0	0	0	317.41743247211	317.617427400779
86029.75	100	495	13	1	38	27	14	1	0	0	0	stim015_stimuli_original_vehicles_planes_3.png	B	0	0	0	317.817432081793	318.0174611439
86129.75	100	496	13	1	38	28	11	12	0	0	0	stim012_stimuli_original_vehicles_boats_4.png	T	f	318.210019397084	1	318.217494838405	318.417460510042
86229.75	100	497	13	1	38	29	7	4	0	0	0	stim008_stimuli_original_animals_fish_4.png	E	0	0	0	318.617462752853	318.817459632177
86329.75	100	498	13	1	38	30	4	9	0	0	0	stim005_stimuli_original_animals_fish_1.png	L	0	0	0	319.017481380142	319.217477771919
86429.75	100	499	13	1	38	31	1	10	0	0	0	stim002_stimuli_original_animals_birds_2.png	Q	0	0	0	319.41748001473	319.617485671304
86529.75	100	500	13	1	38	32	2	8	0	0	0	stim003_stimuli_original_animals_birds_3.png	K	0	0	0	319.817499373108	320.017504054587
86629.75	100	501	13	1	38	33	10	2	0	0	0	stim011_stimuli_original_vehicles_boats_3.png	C	0	0	0	320.217530922033	320.417964951601
86729.75	100	502	13	1	38	34	9	15	0	0	0	stim010_stimuli_original_vehicles_boats_2.png	Y	0	0	0	320.617519073188	320.817521315999
86829.75	100	503	13	1	38	35	6	11	0	0	0	stim007_stimuli_original_animals_fish_3.png	R	0	0	0	321.017537700012	321.217523363885
87563.25	100	504	14	0	37	0	6	0	0	0	0	stim007_stimuli_original_animals_fish_3.png	A	0	0	0	323.950936520472	324.150947784539
87663.25	100	505	14	0	37	1	2	10	0	0	0	stim003_stimuli_original_animals_birds_3.png	Q	0	0	0	324.350967338309	324.550952027086
87763.25	100	506	14	0	37	2	0	4	0	0	0	stim001_stimuli_original_animals_birds_1.png	E	0	0	0	324.750962315593	324.950985770207
87863.25	100	507	14	0	37	3	5	5	0	0	0	stim006_stimuli_original_animals_fish_2.png	F	0	0	0	325.150971678086	325.35096758185
87963.25	100	508	14	0	37	4	8	3	0	0	0	stim009_stimuli_original_vehicles_boats_1.png	D	0	0	0	325.550977870822	325.751009127125
88063.25	100	509	14	0	37	5	4	7	0	0	0	stim005_stimuli_original_animals_fish_1.png	J	0	0	0	325.951014052145	326.150990938768
88163.25	100	510	14	0	37	6	10	11	1	0	0	stim011_stimuli_original_vehicles_boats_3.png	R	0	0	0	326.351021707524	326.551028339192
88263.25	100	511	14	0	37	7	7	13	0	0	0	stim008_stimuli_original_animals_fish_4.png	U	0	0	0	326.751037652604	326.95101795299
88363.25	100	512	14	0	37	8	10	14	1	0	1	stim011_stimuli_original_vehicles_boats_3.png	V	0	0	0	327.15102580376	327.351028534118
88463.25	100	513	14	0	37	9	1	1	0	0	0	stim002_stimuli_original_animals_birds_2.png	B	0	0	0	327.551488895435	327.751068372745
88563.25	100	514	14	0	37	10	9	12	0	0	0	stim010_stimuli_original_vehicles_boats_2.png	T	0	0	0	327.951045990922	328.151035799645
88663.25	100	515	14	0	37	11	15	2	0	0	0	stim016_stimuli_original_vehicles_planes_4.png	C	0	0	0	328.35104267532	328.551047356334
88763.25	100	516	14	0	37	12	10	3	0	1	0	stim011_stimuli_original_vehicles_boats_3.png	D	0	0	0	328.751059107948	328.95105940057
88863.25	100	517	14	0	37	13	11	9	0	0	0	stim012_stimuli_original_vehicles_boats_4.png	L	0	0	0	329.151094801724	329.351100214291
88963.25	100	518	14	0	37	14	14	3	0	1	0	stim015_stimuli_original_vehicles_planes_3.png	D	0	0	0	329.55108904792	329.751114452723
89063.25	100	519	14	0	37	15	3	8	0	0	0	stim004_stimuli_original_animals_birds_4.png	K	0	0	0	329.951119133737	330.151112112217
89163.25	100	520	14	0	37	16	12	6	0	0	0	stim013_stimuli_original_vehicles_planes_1.png	G	0	0	0	330.351127764676	330.551131470595
89263.25	100	521	14	0	37	17	13	15	0	0	0	stim014_stimuli_original_vehicles_planes_2.png	Y	0	0	0	330.751138833817	330.951116939541
89363.25	100	522	14	0	37	18	15	13	0	0	0	stim016_stimuli_original_vehicles_planes_4.png	U	0	0	0	331.151119670365	331.351151414216
89463.25	100	523	14	0	37	19	6	12	0	0	0	stim007_stimuli_original_animals_fish_3.png	T	0	0	0	331.551173405722	331.751163945999
89563.25	100	524	14	0	37	20	8	3	0	0	0	stim009_stimuli_original_vehicles_boats_1.png	D	0	0	0	331.951139613986	332.151161361486
89663.25	100	525	14	0	37	21	3	14	1	0	0	stim004_stimuli_original_animals_birds_4.png	V	0	0	0	332.351182621904	332.55115414504
89763.25	100	526	14	0	37	22	9	11	0	0	0	stim010_stimuli_original_vehicles_boats_2.png	R	0	0	0	332.75119466614	332.951400002465
89863.25	100	527	14	0	37	23	3	10	1	0	1	stim004_stimuli_original_animals_birds_4.png	Q	f	333.342956003733	1	333.15117403958	333.351177257951
89963.25	100	528	14	0	37	24	2	15	0	0	0	stim003_stimuli_original_animals_birds_3.png	Y	0	0	0	333.551187302917	333.751196616329
90063.25	100	529	14	0	37	25	12	9	0	0	0	stim013_stimuli_original_vehicles_planes_1.png	L	0	0	0	333.951228116639	334.151226215065
90163.25	100	530	14	0	37	26	1	1	0	0	0	stim002_stimuli_original_animals_birds_2.png	B	0	0	0	334.351238454226	334.55124118505
90263.25	100	531	14	0	37	27	14	10	0	1	0	stim015_stimuli_original_vehicles_planes_3.png	Q	0	0	0	334.751249523368	334.951222996693
90363.25	100	532	14	0	37	28	13	7	0	0	0	stim014_stimuli_original_vehicles_planes_2.png	J	0	0	0	335.151236698963	335.351257715374
90463.25	100	533	14	0	37	29	11	10	0	1	0	stim012_stimuli_original_vehicles_boats_4.png	Q	0	0	0	335.55126385903	335.7512717098
90563.25	100	534	14	0	37	30	7	4	0	0	0	stim008_stimuli_original_animals_fish_4.png	E	0	0	0	335.951259324327	336.151287167333
90663.25	100	535	14	0	37	31	3	8	0	0	0	stim004_stimuli_original_animals_birds_4.png	K	0	0	0	336.351285996847	336.551261177287
90763.25	100	536	14	0	37	32	5	5	0	0	0	stim006_stimuli_original_animals_fish_2.png	F	0	0	0	336.751271466259	336.951275903266
90863.25	100	537	14	0	37	33	4	0	0	0	0	stim005_stimuli_original_animals_fish_1.png	A	0	0	0	337.151310572866	337.351310377941
90963.25	100	538	14	0	37	34	10	2	0	0	0	stim011_stimuli_original_vehicles_boats_3.png	C	0	0	0	337.551318472717	337.751322909724
91063.25	100	539	14	0	37	35	0	6	0	0	0	stim001_stimuli_original_animals_birds_1.png	G	0	0	0	337.951330760494	338.151337148156
92617.5	100	540	15	1	28	0	4	15	0	0	0	stim005_stimuli_original_animals_fish_1.png	Y	0	0	0	344.168144395575	344.368151270784
92717.5	100	541	15	1	28	1	5	0	0	0	0	stim006_stimuli_original_animals_fish_2.png	A	0	0	0	344.568158877548	344.768159170169
92817.5	100	542	15	1	28	2	1	5	0	0	0	stim002_stimuli_original_animals_birds_2.png	F	0	0	0	344.968182380777	345.168165606912
92917.5	100	543	15	1	28	3	6	9	0	0	0	stim007_stimuli_original_animals_fish_3.png	L	0	0	0	345.368204177357	345.568200081587
93017.5	100	544	15	1	28	4	11	7	0	0	0	stim012_stimuli_original_vehicles_boats_4.png	J	0	0	0	345.768204031046	345.968193352222
93117.5	100	545	15	1	28	5	9	10	0	0	0	stim010_stimuli_original_vehicles_boats_2.png	Q	0	0	0	346.168215100188	346.36820368981
93217.5	100	546	15	1	28	6	10	3	0	0	0	stim011_stimuli_original_vehicles_boats_3.png	D	0	0	0	346.568226656877	346.768202080857
93317.5	100	547	15	1	28	7	7	5	0	1	0	stim008_stimuli_original_animals_fish_4.png	F	0	0	0	346.968215051573	347.168269957416
93417.5	100	548	15	1	28	8	11	12	1	0	0	stim012_stimuli_original_vehicles_boats_4.png	T	0	0	0	347.368226364255	347.568246161565
93517.5	100	549	15	1	28	9	2	5	0	1	1	stim003_stimuli_original_animals_birds_3.png	F	0	0	0	347.768236457836	347.96823626291
93617.5	100	550	15	1	28	10	11	6	1	0	0	stim012_stimuli_original_vehicles_boats_4.png	G	0	0	0	348.168248258065	348.368269274477
93717.5	100	551	15	1	28	11	13	8	0	0	0	stim014_stimuli_original_vehicles_planes_2.png	K	f	348.560821676627	1	348.568262496963	348.768266446423
93817.5	100	552	15	1	28	12	14	14	0	0	0	stim015_stimuli_original_vehicles_planes_3.png	V	0	0	0	348.968293557875	349.168298970442
93917.5	100	553	15	1	28	13	8	13	0	0	0	stim009_stimuli_original_vehicles_boats_1.png	U	0	0	0	349.368301457725	349.568302237894
94017.5	100	554	15	1	28	14	12	4	0	0	0	stim013_stimuli_original_vehicles_planes_1.png	E	0	0	0	349.768309113104	349.968306479976
94117.5	100	555	15	1	28	15	0	11	0	0	0	stim001_stimuli_original_animals_birds_1.png	R	0	0	0	350.168316768948	350.368328276556
94217.5	100	556	15	1	28	16	3	1	0	0	0	stim004_stimuli_original_animals_birds_4.png	B	0	0	0	350.568329544272	350.768333981745
94317.5	100	557	15	1	28	17	15	2	0	0	0	stim016_stimuli_original_vehicles_planes_4.png	C	0	0	0	350.968349390663	351.168349926826
94417.5	100	558	15	1	28	18	2	15	0	0	0	stim003_stimuli_original_animals_birds_3.png	Y	0	0	0	351.368352170102	351.568334176671
94517.5	100	559	15	1	28	19	1	3	0	0	0	stim002_stimuli_original_animals_birds_2.png	D	0	0	0	351.768343490083	351.968366457149
94617.5	100	560	15	1	28	20	11	0	0	0	0	stim012_stimuli_original_vehicles_boats_4.png	A	0	0	0	352.16837747721	352.368380939588
94717.5	100	561	15	1	28	21	4	12	0	0	0	stim005_stimuli_original_animals_fish_1.png	T	0	0	0	352.568363921717	352.768381036818
94817.5	100	562	15	1	28	22	13	8	0	0	0	stim014_stimuli_original_vehicles_planes_2.png	K	0	0	0	352.96837547794	353.168381622061
94917.5	100	563	15	1	28	23	14	14	0	0	0	stim015_stimuli_original_vehicles_planes_3.png	V	0	0	0	353.368386547081	353.56836075196
95017.5	100	564	15	1	28	24	8	13	0	0	0	stim009_stimuli_original_vehicles_boats_1.png	U	0	0	0	353.768416145351	353.968422533479
95117.5	100	565	15	1	28	25	6	11	0	1	0	stim007_stimuli_original_animals_fish_3.png	R	0	0	0	354.168413804844	354.368410928175
95217.5	100	566	15	1	28	26	5	2	1	0	0	stim006_stimuli_original_animals_fish_2.png	C	0	0	0	354.568418290932	354.768413951155
95317.5	100	567	15	1	28	27	12	11	0	1	1	stim013_stimuli_original_vehicles_planes_1.png	R	0	0	0	354.968423508573	355.168457934633
95417.5	100	568	15	1	28	28	5	7	1	0	0	stim006_stimuli_original_animals_fish_2.png	J	0	0	0	355.368442379404	355.568443891127
95517.5	100	569	15	1	28	29	3	10	0	0	0	stim004_stimuli_original_animals_birds_4.png	Q	0	0	0	355.768444183748	355.968445451465
95617.5	100	570	15	1	28	30	10	9	0	0	0	stim011_stimuli_original_vehicles_boats_3.png	L	0	0	0	356.168450620025	356.368481876329
95717.5	100	571	15	1	28	31	7	11	0	0	0	stim008_stimuli_original_animals_fish_4.png	R	0	0	0	356.568507037591	356.768480267376
95817.5	100	572	15	1	28	32	9	6	0	0	0	stim010_stimuli_original_vehicles_boats_2.png	G	0	0	0	356.968500552233	357.168489141855
95917.5	100	573	15	1	28	33	5	1	0	0	0	stim006_stimuli_original_animals_fish_2.png	B	0	0	0	357.368520398159	357.568518984132
96017.5	100	574	15	1	28	34	0	5	0	0	0	stim001_stimuli_original_animals_birds_1.png	F	0	0	0	357.768522934057	357.968542975374
96117.5	100	575	15	1	28	35	15	4	0	0	0	stim016_stimuli_original_vehicles_planes_4.png	E	0	0	0	358.168506452348	358.368509914726
97317.5	100	576	16	0	0	0	3	7	0	0	0	stim004_stimuli_original_animals_birds_4.png	J	0	0	0	362.968668780755	363.168651762884
97417.5	100	577	16	0	0	1	15	11	0	0	0	stim016_stimuli_original_vehicles_planes_4.png	R	0	0	0	363.368670097552	363.568650885019
97517.5	100	578	16	0	0	2	14	8	0	0	0	stim015_stimuli_original_vehicles_planes_3.png	K	0	0	0	363.768656541593	363.9686914552
97617.5	100	579	16	0	0	3	13	0	0	0	0	stim014_stimuli_original_vehicles_planes_2.png	A	0	0	0	364.168697355315	364.368702767882
97717.5	100	580	16	0	0	4	12	14	0	0	0	stim013_stimuli_original_vehicles_planes_1.png	V	0	0	0	364.568695258349	364.768692869227
97817.5	100	581	16	0	0	5	1	2	0	0	0	stim002_stimuli_original_animals_birds_2.png	C	0	0	0	364.968687797897	365.168681507464
97917.5	100	582	16	0	0	6	4	9	0	0	0	stim005_stimuli_original_animals_fish_1.png	L	0	0	0	365.36873982707	365.568732317537
98017.5	100	583	16	0	0	7	14	5	1	0	0	stim015_stimuli_original_vehicles_planes_3.png	F	0	0	0	365.768712617923	365.968722662888
98117.5	100	584	16	0	0	8	2	14	0	1	0	stim003_stimuli_original_animals_birds_3.png	V	0	0	0	366.168753675185	366.368754942901
98217.5	100	585	16	0	0	9	14	3	1	0	1	stim015_stimuli_original_vehicles_planes_3.png	D	0	0	0	366.568751822226	366.768743337598
98317.5	100	586	16	0	0	10	6	14	0	1	0	stim007_stimuli_original_animals_fish_3.png	V	0	0	0	366.968741192017	367.168790002819
98417.5	100	587	16	0	0	11	10	12	0	0	0	stim011_stimuli_original_vehicles_boats_3.png	T	0	0	0	367.368779323995	367.568781079259
98517.5	100	588	16	0	0	12	5	1	0	0	0	stim006_stimuli_original_animals_fish_2.png	B	0	0	0	367.768785029184	367.968787516002
98617.5	100	589	16	0	0	13	0	15	0	0	0	stim001_stimuli_original_animals_birds_1.png	Y	0	0	0	368.16879707342	368.368800779339
98717.75	100	590	16	0	0	14	11	4	0	0	0	stim012_stimuli_original_vehicles_boats_4.png	E	0	0	0	368.569289178122	368.768821356818
98817.5	100	591	16	0	0	15	7	10	0	0	0	stim008_stimuli_original_animals_fish_4.png	Q	0	0	0	368.96881579794	369.168820966501
98917.5	100	592	16	0	0	16	9	13	0	0	0	stim010_stimuli_original_vehicles_boats_2.png	U	0	0	0	369.368831987027	369.568832523189
99017.5	100	593	16	0	0	17	8	6	0	0	0	stim009_stimuli_original_vehicles_boats_1.png	G	0	0	0	369.768845493905	369.968840666581
99117.5	100	594	16	0	0	18	6	8	0	0	0	stim007_stimuli_original_animals_fish_3.png	K	0	0	0	370.168848029338	370.368851491716
99217.5	100	595	16	0	0	19	13	9	0	0	0	stim014_stimuli_original_vehicles_planes_2.png	L	0	0	0	370.568855197635	370.768839398865
99317.5	100	596	16	0	0	20	10	7	0	0	0	stim011_stimuli_original_vehicles_boats_3.png	J	0	0	0	370.968846761622	371.168845835142
99417.5	100	597	16	0	0	21	4	11	0	0	0	stim005_stimuli_original_animals_fish_1.png	R	0	0	0	371.368857586756	371.568864218425
99517.5	100	598	16	0	0	22	15	0	0	0	0	stim016_stimuli_original_vehicles_planes_4.png	A	0	0	0	371.768884503283	371.968864316121
99617.5	100	599	16	0	0	23	1	5	0	0	0	stim002_stimuli_original_animals_birds_2.png	F	0	0	0	372.168893378228	372.368918783031
99717.5	100	600	16	0	0	24	12	10	0	0	0	stim013_stimuli_original_vehicles_planes_1.png	Q	0	0	0	372.568939311896	372.768924731761
99817.5	100	601	16	0	0	25	14	6	1	0	0	stim015_stimuli_original_vehicles_planes_3.png	G	0	0	0	372.968931850977	373.168933119159
99917.5	100	602	16	0	0	26	3	14	0	1	0	stim004_stimuli_original_animals_birds_4.png	V	0	0	0	373.368940481916	373.568946382031
100017.75	100	603	16	0	0	27	14	2	1	0	1	stim015_stimuli_original_vehicles_planes_3.png	C	0	0	0	373.7689530137	373.969367782585
100117.75	100	604	16	0	0	28	5	14	0	1	0	stim006_stimuli_original_animals_fish_2.png	V	0	0	0	374.168948723003	374.368965594564
100217.75	100	605	16	0	0	29	9	4	0	0	0	stim010_stimuli_original_vehicles_boats_2.png	E	0	0	0	374.56898173457	374.768979101442
100317.75	100	606	16	0	0	30	2	1	0	0	0	stim003_stimuli_original_animals_birds_3.png	B	f	374.961521263234	1	374.968966715969	375.168987488374
100417.75	100	607	16	0	0	31	14	12	0	0	0	stim015_stimuli_original_vehicles_planes_3.png	T	0	0	0	375.368993876502	375.569022207055
100517.75	100	608	16	0	0	32	0	13	0	0	0	stim001_stimuli_original_animals_birds_1.png	U	0	0	0	375.769007870927	375.969007188454
100617.75	100	609	16	0	0	33	8	14	0	0	0	stim009_stimuli_original_vehicles_boats_1.png	V	0	0	0	376.168985294178	376.368989000097
100717.75	100	610	16	0	0	34	11	15	0	0	0	stim012_stimuli_original_vehicles_boats_4.png	Y	0	0	0	376.568999289069	376.769030057825
100817.75	100	611	16	0	0	35	7	3	0	0	0	stim008_stimuli_original_animals_fish_4.png	D	0	0	0	376.969025961589	377.169018452521
102663.5	100	612	17	1	9	0	10	1	0	0	0	stim011_stimuli_original_vehicles_boats_3.png	B	0	0	0	384.352566971909	384.552553854883
102763.5	100	613	17	1	9	1	2	11	0	0	0	stim003_stimuli_original_animals_birds_3.png	R	0	0	0	384.752576333936	384.952576626558
102863.5	100	614	17	1	9	2	13	5	0	0	0	stim014_stimuli_original_vehicles_planes_2.png	F	0	0	0	385.152566679288	385.352588427253
102963.5	100	615	17	1	9	3	0	7	0	0	0	stim001_stimuli_original_animals_birds_1.png	J	0	0	0	385.55259286426	385.752998855896
103063.5	100	616	17	1	9	4	8	8	0	0	0	stim009_stimuli_original_vehicles_boats_1.png	K	0	0	0	385.952580283862	386.152594473679
103163.5	100	617	17	1	9	5	3	2	0	0	0	stim004_stimuli_original_animals_birds_4.png	C	0	0	0	386.352614026982	386.552603592165
103263.5	100	618	17	1	9	6	7	4	0	0	0	stim008_stimuli_original_animals_fish_4.png	E	0	0	0	386.752617293969	386.952617830597
103363.5	100	619	17	1	9	7	9	15	0	0	0	stim010_stimuli_original_vehicles_boats_2.png	Y	0	0	0	387.152628850657	387.35261451453
103463.5	100	620	17	1	9	8	4	13	1	0	0	stim005_stimuli_original_animals_fish_1.png	U	0	0	0	387.552631874103	387.752648745663
103563.5	100	621	17	1	9	9	6	10	0	0	0	stim007_stimuli_original_animals_fish_3.png	Q	0	0	0	387.952661228366	388.1526607899
103663.5	100	622	17	1	9	10	4	0	1	0	0	stim005_stimuli_original_animals_fish_1.png	A	0	0	0	388.35267766146	388.552655523643
103763.5	100	623	17	1	9	11	12	3	0	0	0	stim013_stimuli_original_vehicles_planes_1.png	D	0	0	0	388.752679709345	388.952680977061
103863.5	100	624	17	1	9	12	11	15	0	1	0	stim012_stimuli_original_vehicles_boats_4.png	Y	0	0	0	389.152690046933	389.352691314649
103963.5	100	625	17	1	9	13	14	9	0	0	0	stim015_stimuli_original_vehicles_planes_3.png	L	0	0	0	389.552700872067	389.752712867223
104063.5	100	626	17	1	9	14	15	15	0	1	1	stim016_stimuli_original_vehicles_planes_4.png	Y	0	0	0	389.952711697202	390.152705650777
104163.5	100	627	17	1	9	15	1	6	0	0	0	stim002_stimuli_original_animals_birds_2.png	G	0	0	0	390.352721059229	390.552724277601
104263.5	100	628	17	1	9	16	5	12	0	0	0	stim006_stimuli_original_animals_fish_2.png	T	0	0	0	390.752712136135	390.952709014993
104363.5	100	629	17	1	9	17	4	14	0	0	0	stim005_stimuli_original_animals_fish_1.png	V	0	0	0	391.152737346012	391.352750316728
104463.5	100	630	17	1	9	18	14	4	0	0	0	stim015_stimuli_original_vehicles_planes_3.png	E	0	0	0	391.552727690898	391.752762116957
104563.5	100	631	17	1	9	19	12	5	0	0	0	stim013_stimuli_original_vehicles_planes_1.png	F	0	0	0	391.952765822876	392.152768797241
104663.5	100	632	17	1	9	20	6	1	0	0	0	stim007_stimuli_original_animals_fish_3.png	B	0	0	0	392.352747878525	392.552750608884
104763.5	100	633	17	1	9	21	15	15	1	0	0	stim016_stimuli_original_vehicles_planes_4.png	Y	0	0	0	392.752759922761	392.952760215383
104863.5	100	634	17	1	9	22	9	14	0	0	0	stim010_stimuli_original_vehicles_boats_2.png	V	0	0	0	393.15277342964	393.3527844497
104963.5	100	635	17	1	9	23	15	11	1	0	0	stim016_stimuli_original_vehicles_planes_4.png	R	0	0	0	393.552780597471	393.752786010038
105063.5	100	636	17	1	9	24	3	12	0	0	0	stim004_stimuli_original_animals_birds_4.png	T	0	0	0	393.952820923645	394.152791471686
105163.5	100	637	17	1	9	25	0	4	0	1	0	stim001_stimuli_original_animals_birds_1.png	E	f	394.345389709808	0	394.3528090748	394.552804491017
105263.5	100	638	17	1	9	26	10	6	0	0	0	stim011_stimuli_original_vehicles_boats_3.png	G	0	0	0	394.752812829334	394.952851643786
105363.5	100	639	17	1	9	27	13	4	0	1	1	stim014_stimuli_original_vehicles_planes_2.png	E	0	0	0	395.152831212617	395.352823459543
105463.5	100	640	17	1	9	28	15	9	0	0	0	stim016_stimuli_original_vehicles_planes_4.png	L	0	0	0	395.552832041401	395.752838917077
105563.5	100	641	17	1	9	29	4	7	0	0	0	stim005_stimuli_original_animals_fish_1.png	J	0	0	0	395.952848230489	396.152849985752
105663.75	100	642	17	1	9	30	2	3	0	0	0	stim003_stimuli_original_animals_birds_3.png	D	0	0	0	396.35332838865	396.552897382528
105763.5	100	643	17	1	9	31	8	8	0	0	0	stim009_stimuli_original_vehicles_boats_1.png	K	0	0	0	396.752893530298	396.952895285562
105863.5	100	644	17	1	9	32	7	0	0	0	0	stim008_stimuli_original_animals_fish_4.png	A	0	0	0	397.152903623879	397.352888556663
105963.5	100	645	17	1	9	33	5	13	0	0	0	stim006_stimuli_original_animals_fish_2.png	U	0	0	0	397.552912498359	397.752920593135
106063.5	100	646	17	1	9	34	11	2	0	0	0	stim012_stimuli_original_vehicles_boats_4.png	C	0	0	0	397.952927468345	398.152912157122
106163.5	100	647	17	1	9	35	1	10	0	0	0	stim002_stimuli_original_animals_birds_2.png	Q	0	0	0	398.35293341754	398.552936147898
107755.25	100	648	18	0	23	0	9	10	0	0	0	stim010_stimuli_original_vehicles_boats_2.png	Q	0	0	0	404.719789816532	404.919761827216
107855.25	100	649	18	0	23	1	1	4	0	0	0	stim002_stimuli_original_animals_birds_2.png	E	0	0	0	405.119759194087	405.319766313303
107955.25	100	650	18	0	23	2	8	5	0	0	0	stim009_stimuli_original_vehicles_boats_1.png	F	0	0	0	405.519779040013	405.719779332634
108055.25	100	651	18	0	23	3	0	1	0	0	0	stim001_stimuli_original_animals_birds_1.png	B	0	0	0	405.919813514687	406.11981307622
108155.25	100	652	18	0	23	4	11	11	0	0	0	stim012_stimuli_original_vehicles_boats_4.png	R	0	0	0	406.319819707423	406.519807809498
108255.25	100	653	18	0	23	5	7	7	1	0	0	stim008_stimuli_original_animals_fish_4.png	J	f	406.712375815492	0	406.719828582369	406.919816196896
108355.5	100	654	18	0	23	6	6	2	0	0	0	stim007_stimuli_original_animals_fish_3.png	C	0	0	0	407.120337997563	407.319844332524
108455.25	100	655	18	0	23	7	7	12	1	0	1	stim008_stimuli_original_animals_fish_4.png	T	0	0	0	407.519848769531	407.719851256348
108555.25	100	656	18	0	23	8	13	13	0	0	0	stim014_stimuli_original_vehicles_planes_2.png	U	0	0	0	407.919846429024	408.119838919956
108655.25	100	657	18	0	23	9	10	8	0	0	0	stim011_stimuli_original_vehicles_boats_3.png	K	0	0	0	408.319843844976	408.519846331794
108755.25	100	658	18	0	23	10	3	14	0	0	0	stim004_stimuli_original_animals_birds_4.png	V	0	0	0	408.719849306159	408.919858863577
108855.25	100	659	18	0	23	11	15	9	0	0	0	stim016_stimuli_original_vehicles_planes_4.png	L	0	0	0	409.119875003584	409.319867738057
108955.25	100	660	18	0	23	12	2	7	0	1	0	stim003_stimuli_original_animals_birds_3.png	J	0	0	0	409.519905577414	409.71992756892
109055.25	100	661	18	0	23	13	7	0	0	0	0	stim008_stimuli_original_animals_fish_4.png	A	0	0	0	409.919913476799	410.119918157812
109155.25	100	662	18	0	23	14	14	7	0	1	0	stim015_stimuli_original_vehicles_planes_3.png	J	0	0	0	410.31991771888	410.519917523954
109255.25	100	663	18	0	23	15	4	6	0	0	0	stim005_stimuli_original_animals_fish_1.png	G	0	0	0	410.719930007122	410.919927373994
109355.25	100	664	18	0	23	16	12	15	0	0	0	stim013_stimuli_original_vehicles_planes_1.png	Y	0	0	0	411.119953753892	411.319949414115
109455.25	100	665	18	0	23	17	5	3	0	0	0	stim006_stimuli_original_animals_fish_2.png	D	0	0	0	411.51995531423	411.719957069959
109555.25	100	666	18	0	23	18	3	5	0	0	0	stim004_stimuli_original_animals_birds_4.png	F	0	0	0	411.919966139365	412.119972039945
109655.25	100	667	18	0	23	19	15	12	0	0	0	stim016_stimuli_original_vehicles_planes_4.png	T	0	0	0	412.31997794006	412.520263245795
109755.25	100	668	18	0	23	20	6	4	0	0	0	stim007_stimuli_original_animals_fish_3.png	E	0	0	0	412.719988277648	412.919993933756
109855.25	100	669	18	0	23	21	7	14	1	0	0	stim008_stimuli_original_animals_fish_4.png	V	0	0	0	413.120002028532	413.319949901663
109955.25	100	670	18	0	23	22	0	7	0	0	0	stim001_stimuli_original_animals_birds_1.png	J	0	0	0	413.520007977262	413.719994616695
110055.25	100	671	18	0	23	23	7	2	1	0	1	stim008_stimuli_original_animals_fish_4.png	C	0	0	0	413.919990520459	414.120024458971
110155.25	100	672	18	0	23	24	9	15	0	0	0	stim010_stimuli_original_vehicles_boats_2.png	Y	f	414.511793306097	1	414.320028895978	414.520035527647
110255.25	100	673	18	0	23	25	14	3	0	0	0	stim015_stimuli_original_vehicles_planes_3.png	D	0	0	0	414.720041671768	414.920042695943
110355.25	100	674	18	0	23	26	8	10	0	0	0	stim009_stimuli_original_vehicles_boats_1.png	Q	0	0	0	415.120059567504	415.320055471268
110455.25	100	675	18	0	23	27	13	13	0	0	0	stim014_stimuli_original_vehicles_planes_2.png	U	0	0	0	415.52006185893	415.720071416348
110555.25	100	676	18	0	23	28	12	7	0	1	0	stim013_stimuli_original_vehicles_planes_1.png	J	0	0	0	415.92006878322	416.120075171348
110655.5	100	677	18	0	23	29	2	6	0	0	0	stim003_stimuli_original_animals_birds_3.png	G	0	0	0	416.320084972307	416.520084289834
110755.5	100	678	18	0	23	30	7	7	0	1	0	stim008_stimuli_original_animals_fish_4.png	J	0	0	0	416.720076780301	416.920094870962
110855.5	100	679	18	0	23	31	11	11	0	0	0	stim012_stimuli_original_vehicles_boats_4.png	R	0	0	0	417.120103209279	417.320094480645
110955.5	100	680	18	0	23	32	1	0	0	0	0	stim002_stimuli_original_animals_birds_2.png	A	0	0	0	417.520114034414	417.720115302131
111055.5	100	681	18	0	23	33	5	8	0	0	0	stim006_stimuli_original_animals_fish_2.png	K	0	0	0	417.920130711049	418.120132222772
111155.5	100	682	18	0	23	34	4	1	0	0	0	stim005_stimuli_original_animals_fish_1.png	B	0	0	0	418.320112766698	418.520115741063
111255.5	100	683	18	0	23	35	10	9	0	0	0	stim011_stimuli_original_vehicles_boats_3.png	L	0	0	0	418.720118959434	418.920124372002
112051.25	100	684	19	1	11	0	1	14	0	0	0	stim002_stimuli_original_animals_birds_2.png	V	0	0	0	421.903571418021	422.103557081893
112151.25	100	685	19	1	11	1	7	1	0	0	0	stim008_stimuli_original_animals_fish_4.png	B	0	0	0	422.303581268061	422.50357619673
112251.25	100	686	19	1	11	2	15	0	0	0	0	stim016_stimuli_original_vehicles_planes_4.png	A	0	0	0	422.703604039736	422.903588972054
112351.25	100	687	19	1	11	3	10	2	0	0	0	stim011_stimuli_original_vehicles_boats_3.png	C	0	0	0	423.103600967675	423.303600528743
112451.25	100	688	19	1	11	4	11	9	0	0	0	stim012_stimuli_original_vehicles_boats_4.png	L	0	0	0	423.503607404418	423.703610622324
112551.25	100	689	19	1	11	5	6	13	0	0	0	stim007_stimuli_original_animals_fish_3.png	U	0	0	0	423.903617985547	424.103639977053
112651.25	100	690	19	1	11	6	8	10	1	0	0	stim009_stimuli_original_vehicles_boats_1.png	Q	0	0	0	424.303632467985	424.503629346844
112751.25	100	691	19	1	11	7	13	4	0	0	0	stim014_stimuli_original_vehicles_planes_2.png	E	0	0	0	424.70363744162	424.903641879093
112851.25	100	692	19	1	11	8	8	12	1	0	0	stim009_stimuli_original_vehicles_boats_1.png	T	0	0	0	425.10364729166	425.303651728667
112951.25	100	693	19	1	11	9	9	3	0	0	0	stim010_stimuli_original_vehicles_boats_2.png	D	0	0	0	425.503646413796	425.703643049113
113051.25	100	694	19	1	11	10	0	15	0	1	0	stim001_stimuli_original_animals_birds_1.png	Y	0	0	0	425.903675524518	426.103676792234
113151.25	100	695	19	1	11	11	5	5	0	0	0	stim006_stimuli_original_animals_fish_2.png	F	0	0	0	426.303664406762	426.503658604342
113251.25	100	696	19	1	11	12	8	15	0	1	1	stim009_stimuli_original_vehicles_boats_1.png	Y	0	0	0	426.703692542389	426.903696004767
113351.25	100	697	19	1	11	13	12	8	0	0	0	stim013_stimuli_original_vehicles_planes_1.png	K	0	0	0	427.103685325943	427.303706829902
113451.25	100	698	19	1	11	14	4	6	0	0	0	stim005_stimuli_original_animals_fish_1.png	G	0	0	0	427.503696151078	427.703703270294
113551.25	100	699	19	1	11	15	3	7	0	0	0	stim004_stimuli_original_animals_birds_4.png	J	0	0	0	427.903716972098	428.103721897118
113651.25	100	700	19	1	11	16	2	15	0	0	0	stim003_stimuli_original_animals_birds_3.png	Y	f	428.495470508002	1	428.303702685051	428.503700295463
113751.25	100	701	19	1	11	17	14	11	0	0	0	stim015_stimuli_original_vehicles_planes_3.png	R	0	0	0	428.703723018523	428.903719166294
113851.25	100	702	19	1	11	18	11	14	0	0	0	stim012_stimuli_original_vehicles_boats_4.png	V	0	0	0	429.103731893469	429.303739743773
113951.25	100	703	19	1	11	19	15	2	0	0	0	stim016_stimuli_original_vehicles_planes_4.png	C	0	0	0	429.503741499502	429.703742523212
114051.25	100	704	19	1	11	20	7	3	0	0	0	stim008_stimuli_original_animals_fish_4.png	D	0	0	0	429.903751593083	430.103784312494
114151.25	100	705	19	1	11	21	6	4	0	0	0	stim007_stimuli_original_animals_fish_3.png	E	0	0	0	430.303791187704	430.503786360379
114251.5	100	706	19	1	11	22	8	12	0	0	0	stim009_stimuli_original_vehicles_boats_1.png	T	0	0	0	430.704285730608	430.903782313224
114351.25	100	707	19	1	11	23	15	8	1	0	0	stim016_stimuli_original_vehicles_planes_4.png	K	0	0	0	431.10378358094	431.30381117994
114451.25	100	708	19	1	11	24	5	5	0	0	0	stim006_stimuli_original_animals_fish_2.png	F	0	0	0	431.503821712919	431.703804207034
114551.25	100	709	19	1	11	25	15	0	1	0	0	stim016_stimuli_original_vehicles_planes_4.png	A	0	0	0	431.903827661648	432.103812594432
114651.25	100	710	19	1	11	26	3	9	0	0	0	stim004_stimuli_original_animals_birds_4.png	L	0	0	0	432.303845800925	432.503826345317
114751.25	100	711	19	1	11	27	12	8	0	1	0	stim013_stimuli_original_vehicles_planes_1.png	K	0	0	0	432.703849067912	432.903856187593
114851.25	100	712	19	1	11	28	4	13	0	0	0	stim005_stimuli_original_animals_fish_1.png	U	0	0	0	433.103840632364	433.303834585939
114951.25	100	713	19	1	11	29	10	8	0	1	1	stim011_stimuli_original_vehicles_boats_3.png	K	f	433.496401616372	1	433.503872668836	433.7038744241
115051.25	100	714	19	1	11	30	13	6	0	0	0	stim014_stimuli_original_vehicles_planes_2.png	G	0	0	0	433.903884957079	434.103890369646
115151.25	100	715	19	1	11	31	9	11	0	0	0	stim010_stimuli_original_vehicles_boats_2.png	R	0	0	0	434.303877983708	434.503875838593
115251.25	100	716	19	1	11	32	2	10	0	0	0	stim003_stimuli_original_animals_birds_3.png	Q	0	0	0	434.703888077755	434.903876179829
115351.25	100	717	19	1	11	33	0	15	0	0	0	stim001_stimuli_original_animals_birds_1.png	Y	0	0	0	435.103889638092	435.303897244856
115451.25	100	718	19	1	11	34	1	7	0	0	0	stim002_stimuli_original_animals_birds_2.png	J	0	0	0	435.503928501159	435.703925868031
115551.25	100	719	19	1	11	35	14	1	0	0	0	stim015_stimuli_original_vehicles_planes_3.png	B	0	0	0	435.903935425449	436.104364091065
125710	100	720	20	0	2	0	8	0	0	0	0	stim009_stimuli_original_vehicles_boats_1.png	A	0	0	0	476.538344641216	476.738344689831
125810	100	721	20	0	2	1	10	12	0	0	0	stim011_stimuli_original_vehicles_boats_3.png	T	0	0	0	476.938337911852	477.138356977608
125910	100	722	20	0	2	2	0	9	0	0	0	stim001_stimuli_original_animals_birds_1.png	L	0	0	0	477.338364584837	477.538345616311
126010	100	723	20	0	2	3	15	5	0	0	0	stim016_stimuli_original_vehicles_planes_4.png	F	0	0	0	477.738355173729	477.938355466351
126110	100	724	20	0	2	4	3	14	0	0	0	stim004_stimuli_original_animals_birds_4.png	V	0	0	0	478.138387210201	478.338389209472
126210	100	725	20	0	2	5	5	10	0	0	0	stim006_stimuli_original_animals_fish_2.png	Q	0	0	0	478.538397547789	478.73840369191
126310	100	726	20	0	2	6	6	13	0	1	0	stim007_stimuli_original_animals_fish_3.png	U	0	0	0	478.938404228073	479.138396718539
126410	100	727	20	0	2	7	11	2	0	0	0	stim012_stimuli_original_vehicles_boats_4.png	C	0	0	0	479.338393354323	479.538411200978
126510	100	728	20	0	2	8	4	13	0	1	0	stim005_stimuli_original_animals_fish_1.png	U	0	0	0	479.738408323843	479.938416174613
126610	100	729	20	0	2	9	9	1	0	0	0	stim010_stimuli_original_vehicles_boats_2.png	B	0	0	0	480.138449381571	480.338436996099
126710	100	730	20	0	2	10	5	7	1	0	0	stim006_stimuli_original_animals_fish_2.png	J	0	0	0	480.538451673463	480.738454403821
126810	100	731	20	0	2	11	12	15	0	0	0	stim013_stimuli_original_vehicles_planes_1.png	Y	0	0	0	480.938458841294	481.138866295572
126910	100	732	20	0	2	12	5	13	1	0	1	stim006_stimuli_original_animals_fish_2.png	U	0	0	0	481.338474055286	481.538457037415
127010	100	733	20	0	2	13	1	8	0	0	0	stim002_stimuli_original_animals_birds_2.png	K	0	0	0	481.738461230882	481.938464205246
127110	100	734	20	0	2	14	7	3	0	0	0	stim008_stimuli_original_animals_fish_4.png	D	0	0	0	482.138472543564	482.338470397983
127210	100	735	20	0	2	15	13	4	0	0	0	stim014_stimuli_original_vehicles_planes_2.png	E	0	0	0	482.538500679191	482.738504141103
127310	100	736	20	0	2	16	14	11	0	0	0	stim015_stimuli_original_vehicles_planes_3.png	R	0	0	0	482.938513454515	483.138519598637
127410	100	737	20	0	2	17	2	6	0	0	0	stim003_stimuli_original_animals_birds_3.png	G	0	0	0	483.338524767663	483.538527498022
127510	100	738	20	0	2	18	6	2	0	0	0	stim007_stimuli_original_animals_fish_3.png	C	0	0	0	483.738552415278	483.938536860514
127610	100	739	20	0	2	19	11	14	0	0	0	stim012_stimuli_original_vehicles_boats_4.png	V	0	0	0	484.138527888339	484.338532081805
127710	100	740	20	0	2	20	4	13	0	0	0	stim005_stimuli_original_animals_fish_1.png	U	0	0	0	484.538539444562	484.738532423042
127810	100	741	20	0	2	21	3	7	0	0	0	stim004_stimuli_original_animals_birds_4.png	J	0	0	0	484.938566117547	485.138584452216
127910	100	742	20	0	2	22	8	1	0	0	0	stim009_stimuli_original_vehicles_boats_1.png	B	0	0	0	485.338556218892	485.538556755055
128010	100	743	20	0	2	23	13	5	0	1	0	stim014_stimuli_original_vehicles_planes_2.png	F	0	0	0	485.738584598061	485.938573431689
128110	100	744	20	0	2	24	15	12	0	0	0	stim016_stimuli_original_vehicles_planes_4.png	T	0	0	0	486.138596642297	486.338573529385
128210	100	745	20	0	2	25	7	5	0	1	0	stim008_stimuli_original_animals_fish_4.png	F	0	0	0	486.538595764898	486.738589230459
128310	100	746	20	0	2	26	1	9	0	0	0	stim002_stimuli_original_animals_birds_2.png	L	0	0	0	486.938597812783	487.138594692107
128410	100	747	20	0	2	27	13	4	1	0	0	stim014_stimuli_original_vehicles_planes_2.png	E	0	0	0	487.338602298871	487.538605273236
128510	100	748	20	0	2	28	2	11	0	0	0	stim003_stimuli_original_animals_birds_3.png	R	0	0	0	487.73862287635	487.938628776465
128610	100	749	20	0	2	29	13	6	1	0	1	stim014_stimuli_original_vehicles_planes_2.png	G	0	0	0	488.138630775735	488.338639114052
128710	100	750	20	0	2	30	10	5	0	0	0	stim011_stimuli_original_vehicles_boats_3.png	F	0	0	0	488.538638919126	488.738639699295
128810	100	751	20	0	2	31	14	3	0	0	0	stim015_stimuli_original_vehicles_planes_3.png	D	0	0	0	488.938647793606	489.138655644376
128910	100	752	20	0	2	32	5	15	0	0	0	stim006_stimuli_original_animals_fish_2.png	Y	0	0	0	489.338669102639	489.538685974199
129010	100	753	20	0	2	33	9	0	0	0	0	stim010_stimuli_original_vehicles_boats_2.png	A	0	0	0	489.738690655213	489.938664129004
129110	100	754	20	0	2	34	12	10	0	0	0	stim013_stimuli_original_vehicles_planes_1.png	Q	0	0	0	490.138685388956	490.338719815016
129210	100	755	20	0	2	35	0	8	0	0	0	stim001_stimuli_original_animals_birds_1.png	K	0	0	0	490.538713281043	490.738699676469
129997.5	100	756	21	1	7	0	0	8	0	0	0	stim001_stimuli_original_animals_birds_1.png	K	0	0	0	493.688794566784	493.888800467364
130097.5	100	757	21	1	7	1	13	12	0	0	0	stim014_stimuli_original_vehicles_planes_2.png	T	0	0	0	494.088814656716	494.288786179852
130197.5	100	758	21	1	7	2	12	2	0	0	0	stim013_stimuli_original_vehicles_planes_1.png	C	f	494.481400021818	0	494.488824994303	494.688822117634
130297.5	100	759	21	1	7	3	4	3	0	0	0	stim005_stimuli_original_animals_fish_1.png	D	0	0	0	494.888812169898	495.088813194074
130397.5	100	760	21	1	7	4	5	11	0	0	0	stim006_stimuli_original_animals_fish_2.png	R	0	0	0	495.288847376127	495.488850350492
130497.5	100	761	21	1	7	5	15	0	0	0	0	stim016_stimuli_original_vehicles_planes_4.png	A	f	495.681461998262	0	495.688851130661	495.888852398377
130597.5	100	762	21	1	7	6	14	14	0	0	0	stim015_stimuli_original_vehicles_planes_3.png	V	0	0	0	496.08883611206	496.288868343923
130697.5	100	763	21	1	7	7	7	13	0	0	0	stim008_stimuli_original_animals_fish_4.png	U	0	0	0	496.488884239923	496.688849668019
130797.5	100	764	21	1	7	8	8	15	0	0	0	stim009_stimuli_original_vehicles_boats_1.png	Y	0	0	0	496.888860932086	497.088884386234
130897.5	100	765	21	1	7	9	3	10	1	0	0	stim004_stimuli_original_animals_birds_4.png	Q	0	0	0	497.288897600956	497.48889935622
130997.5	100	766	21	1	7	10	6	1	0	0	0	stim007_stimuli_original_animals_fish_3.png	B	0	0	0	497.688903793693	497.888914813753
131097.5	100	767	21	1	7	11	3	13	1	1	0	stim004_stimuli_original_animals_birds_4.png	U	0	0	0	498.088896089233	498.288899063598
131197.5	100	768	21	1	7	12	2	6	0	0	0	stim003_stimuli_original_animals_birds_3.png	G	0	0	0	498.488930076361	498.688903062139
131297.5	100	769	21	1	7	13	9	13	0	1	1	stim010_stimuli_original_vehicles_boats_2.png	U	0	0	0	498.888914082199	499.088916813023
131397.5	100	770	21	1	7	14	11	4	0	0	0	stim012_stimuli_original_vehicles_boats_4.png	E	0	0	0	499.289162865374	499.488956407644
131497.5	100	771	21	1	7	15	3	7	0	0	0	stim004_stimuli_original_animals_birds_4.png	J	0	0	0	499.688956700265	499.888942364138
131597.5	100	772	21	1	7	16	10	9	0	0	0	stim011_stimuli_original_vehicles_boats_3.png	L	0	0	0	500.088950702455	500.288970743772
131697.5	100	773	21	1	7	17	1	5	0	0	0	stim002_stimuli_original_animals_birds_2.png	F	0	0	0	500.488979082089	500.688965477515
131797.5	100	774	21	1	7	18	5	1	0	0	0	stim006_stimuli_original_animals_fish_2.png	B	0	0	0	500.888978691772	501.088963624556
131897.5	100	775	21	1	7	19	9	10	0	0	0	stim010_stimuli_original_vehicles_boats_2.png	Q	0	0	0	501.288974888623	501.489005657379
131997.5	100	776	21	1	7	20	7	3	0	0	0	stim008_stimuli_original_animals_fish_4.png	D	0	0	0	501.689010094386	501.889012337662
132097.5	100	777	21	1	7	21	4	11	0	0	0	stim005_stimuli_original_animals_fish_1.png	R	0	0	0	502.089007753879	502.289005608298
132197.5	100	778	21	1	7	22	13	9	1	0	0	stim014_stimuli_original_vehicles_planes_2.png	L	0	0	0	502.48900395073	502.689007168636
132297.5	100	779	21	1	7	23	6	2	0	0	0	stim007_stimuli_original_animals_fish_3.png	C	0	0	0	502.889010387007	503.089013117831
132397.5	100	780	21	1	7	24	13	3	1	1	0	stim014_stimuli_original_vehicles_planes_2.png	D	0	0	0	503.289027063642	503.489028331358
132497.5	100	781	21	1	7	25	1	6	0	0	0	stim002_stimuli_original_animals_birds_2.png	G	0	0	0	503.689054467715	503.889035987202
132597.5	100	782	21	1	7	26	10	3	0	1	1	stim011_stimuli_original_vehicles_boats_3.png	D	0	0	0	504.08905334631	504.289049006533
132697.5	100	783	21	1	7	27	15	8	0	0	0	stim016_stimuli_original_vehicles_planes_4.png	K	0	0	0	504.489088552538	504.689503077418
132797.5	100	784	21	1	7	28	13	7	0	0	0	stim014_stimuli_original_vehicles_planes_2.png	J	0	0	0	504.889068657532	505.089099182282
132897.5	100	785	21	1	7	29	14	14	0	0	0	stim015_stimuli_original_vehicles_planes_3.png	V	0	0	0	505.289080214221	505.489106838126
132997.5	100	786	21	1	7	30	0	15	0	0	0	stim001_stimuli_original_animals_birds_1.png	Y	0	0	0	505.68908884516	505.889101327863
133097.5	100	787	21	1	7	31	11	5	0	0	0	stim012_stimuli_original_vehicles_boats_4.png	F	0	0	0	506.089102596045	506.289098743815
133197.5	100	788	21	1	7	32	3	4	0	0	0	stim004_stimuli_original_animals_birds_4.png	E	0	0	0	506.48912244197	506.689127854537
133297.5	100	789	21	1	7	33	2	12	0	0	0	stim003_stimuli_original_animals_birds_3.png	T	0	0	0	506.889117419254	507.089120637625
133397.5	100	790	21	1	7	34	12	13	0	0	0	stim013_stimuli_original_vehicles_planes_1.png	U	0	0	0	507.289127269294	507.489134876058
133497.5	100	791	21	1	7	35	8	0	0	0	0	stim009_stimuli_original_vehicles_boats_1.png	A	0	0	0	507.689140288625	507.889140093699
134751.75	100	792	22	0	13	0	14	5	0	0	0	stim015_stimuli_original_vehicles_planes_3.png	F	0	0	0	512.705951680895	512.905954898801
134851.75	100	793	22	0	13	1	0	0	0	0	0	stim001_stimuli_original_animals_birds_1.png	A	0	0	0	513.105960311368	513.305983278435
134951.75	100	794	22	0	13	2	12	15	0	0	0	stim013_stimuli_original_vehicles_planes_1.png	Y	0	0	0	513.505995761603	513.705970210023
135051.75	100	795	22	0	13	3	11	10	0	0	0	stim012_stimuli_original_vehicles_boats_4.png	Q	0	0	0	513.906009268481	514.106378444936
135151.75	100	796	22	0	13	4	5	14	0	0	0	stim006_stimuli_original_animals_fish_2.png	V	0	0	0	514.305988642387	514.505987715907
135251.75	100	797	22	0	13	5	7	3	0	0	0	stim008_stimuli_original_animals_fish_4.png	D	0	0	0	514.706026286352	514.906025116332
