onset	duration	eventnumber	sequencenumber	condition	streamnumber	stimnumber	objectstimnumber	letterstimnumber	objecttarget	lettertarget	is2back	objectstim	letterstim	response	rt	correct	time_stimon	time_stimoff
75.841	0.2	0	0	1	37	0	11	7	0	0	0	stim012_stimuli_original_vehicles_boats_4.png	J	0	0	0	56.9144024084671	57.1143956305459
76.241	0.2	1	0	1	37	1	10	5	0	0	0	stim011_stimuli_original_vehicles_boats_3.png	F	0	0	0	57.3144056755118	57.5149772135774
76.641	0.2	2	0	1	37	2	14	12	0	0	0	stim015_stimuli_original_vehicles_planes_3.png	T	0	0	0	57.714418694959	57.914420694171
77.041	0.2	3	0	1	37	3	0	14	0	0	0	stim001_stimuli_original_animals_birds_1.png	V	0	0	0	58.1144375657896	58.314413233602
77.441	0.2	4	0	1	37	4	15	1	0	0	0	stim016_stimuli_original_vehicles_planes_4.png	B	0	0	0	58.5144162080833	58.71444331971
77.841	0.2	5	0	1	37	5	2	9	0	0	0	stim003_stimuli_original_animals_birds_3.png	L	0	0	0	58.914451657969	59.1144309829106
78.241	0.2	6	0	1	37	6	3	8	0	0	0	stim004_stimuli_original_animals_birds_4.png	K	0	0	0	59.3144573630998	59.5144713090267
78.641	0.2	7	0	1	37	7	12	11	0	0	0	stim013_stimuli_original_vehicles_planes_1.png	R	0	0	0	59.7144669691916	59.9144721379853
79.041	0.2	8	0	1	37	8	9	2	0	0	0	stim010_stimuli_original_vehicles_boats_2.png	C	0	0	0	60.1144665791071	60.3144851573743
79.441	0.2	9	0	1	37	9	6	4	0	0	0	stim007_stimuli_original_animals_fish_3.png	E	0	0	0	60.5144961775513	60.7144930568174
79.841	0.2	10	0	1	37	10	2	14	1	1	0	stim003_stimuli_original_animals_birds_3.png	V	0	0	0	60.9145023703459	61.1145072953077
80.241	0.2	11	0	1	37	11	5	10	0	0	0	stim006_stimuli_original_animals_fish_2.png	Q	0	0	0	61.3145107573946	61.5145312861423
80.641	0.2	12	0	1	37	12	2	14	1	1	1	stim003_stimuli_original_animals_birds_3.png	V	0	0	0	61.7145257272641	61.9145252884482
81.041	0.2	13	0	1	37	13	13	6	0	0	0	stim014_stimuli_original_vehicles_planes_2.png	G	0	0	0	62.1145331391017	62.3145346507081
81.441	0.2	14	0	1	37	14	8	15	0	0	0	stim009_stimuli_original_vehicles_boats_1.png	Y	NaN	62.7063276350382	1	62.5145464023226	62.714528653014
81.841	0.2	15	0	1	37	15	4	13	0	0	0	stim005_stimuli_original_animals_fish_1.png	U	0	0	0	62.9145255322219	63.1145238743047
82.241	0.2	16	0	1	37	16	7	0	0	0	0	stim008_stimuli_original_animals_fish_4.png	A	0	0	0	63.3145341631025	63.5145656632958
82.641	0.2	17	0	1	37	17	1	3	0	0	0	stim002_stimuli_original_animals_birds_2.png	D	0	0	0	63.7145808282075	63.9145784388529
83.041	0.2	18	0	1	37	18	3	1	0	0	0	stim004_stimuli_original_animals_birds_4.png	B	0	0	0	64.1145823886036	64.314582437335
83.441	0.2	19	0	1	37	19	0	7	0	0	0	stim001_stimuli_original_animals_birds_1.png	J	0	0	0	64.5145929699065	64.7145983824739
83.841	0.2	20	0	1	37	20	13	4	0	0	0	stim014_stimuli_original_vehicles_planes_2.png	E	0	0	0	64.9146035512676	65.114607744792
84.241	0.2	21	0	1	37	21	15	8	0	0	0	stim016_stimuli_original_vehicles_planes_4.png	K	0	0	0	65.3146107192733	65.5146188137005
84.641	0.2	22	0	1	37	22	6	13	0	0	0	stim007_stimuli_original_animals_fish_3.png	U	0	0	0	65.7146208129707	65.9146289074561
85.041	0.2	23	0	1	37	23	14	2	1	1	0	stim015_stimuli_original_vehicles_planes_3.png	C	0	0	0	66.1146589447744	66.3146480221185
85.441	0.2	24	0	1	37	24	10	5	0	0	0	stim011_stimuli_original_vehicles_boats_3.png	F	0	0	0	66.5146431946778	66.7146486072452
85.841	0.2	25	0	1	37	25	14	2	1	1	1	stim015_stimuli_original_vehicles_planes_3.png	C	0	0	0	66.9146559702931	67.1146596762119
86.241	0.2	26	0	1	37	26	4	6	0	0	0	stim005_stimuli_original_animals_fish_1.png	G	0	0	0	67.3146658201586	67.5146666003857
86.641	0.2	27	0	1	37	27	2	9	0	0	0	stim003_stimuli_original_animals_birds_3.png	L	0	0	0	67.7146839596098	67.9146823016927
87.041	0.2	28	0	1	37	28	11	12	0	0	0	stim012_stimuli_original_vehicles_boats_4.png	T	0	0	0	68.1146857637796	68.3146897135302
87.441	0.2	29	0	1	37	29	8	3	0	0	0	stim009_stimuli_original_vehicles_boats_1.png	D	0	0	0	68.5146968327463	68.7146983443527
87.842	0.2	30	0	1	37	30	9	2	0	0	0	stim010_stimuli_original_vehicles_boats_2.png	C	0	0	0	68.914707901713	69.1147101447568
88.242	0.2	31	0	1	37	31	1	15	0	0	0	stim002_stimuli_original_animals_birds_2.png	Y	0	0	0	69.3147177515784	69.5147226765403
88.642	0.2	32	0	1	37	32	14	0	0	0	0	stim015_stimuli_original_vehicles_planes_3.png	A	0	0	0	69.7147278452758	69.91473496455
89.042	0.2	33	0	1	37	33	12	14	0	0	0	stim013_stimuli_original_vehicles_planes_1.png	V	0	0	0	70.1147464723326	70.3147470087279
89.442	0.2	34	0	1	37	34	5	10	0	0	0	stim006_stimuli_original_animals_fish_2.png	Q	0	0	0	70.5147487641661	70.7147502757725
89.842	0.2	35	0	1	37	35	7	11	0	0	0	stim008_stimuli_original_animals_fish_4.png	R	0	0	0	70.9147615397815	71.1147684151656
92.458	0.2	36	1	0	12	0	2	12	0	0	0	stim003_stimuli_original_animals_birds_3.png	T	0	0	0	73.5315048113698	73.7315085172886
92.858	0.2	37	1	0	12	1	7	0	0	0	0	stim008_stimuli_original_animals_fish_4.png	A	0	0	0	73.9315161241102	74.1315188547596
93.258	0.2	38	1	0	12	2	8	3	0	0	0	stim009_stimuli_original_vehicles_boats_1.png	D	0	0	0	74.3315384082962	74.531763005536
93.658	0.2	39	1	0	12	3	9	8	0	0	0	stim010_stimuli_original_vehicles_boats_2.png	K	0	0	0	74.7315182696329	74.9315144174616
94.058	0.2	40	1	0	12	4	14	7	0	0	0	stim015_stimuli_original_vehicles_planes_3.png	J	0	0	0	75.1315503062215	75.3315525492653
94.458	0.2	41	1	0	12	5	5	10	0	1	0	stim006_stimuli_original_animals_fish_2.png	Q	0	0	0	75.5315572303953	75.7315577667905
94.858	0.2	42	1	0	12	6	15	6	0	0	0	stim016_stimuli_original_vehicles_planes_4.png	G	0	0	0	75.9315485507832	76.1315564014367
95.258	0.2	43	1	0	12	7	11	10	1	1	0	stim012_stimuli_original_vehicles_boats_4.png	Q	0	0	0	76.3315761987469	76.5315684456145
95.658	0.2	44	1	0	12	8	3	9	0	0	0	stim004_stimuli_original_animals_birds_4.png	L	0	0	0	76.7315716639278	76.9315890231519
96.058	0.2	45	1	0	12	9	11	1	1	0	1	stim012_stimuli_original_vehicles_boats_4.png	B	0	0	0	77.1315988242859	77.3316020425409
96.458	0.2	46	1	0	12	10	10	2	0	0	0	stim011_stimuli_original_vehicles_boats_3.png	C	0	0	0	77.5315928265918	77.731610185816
96.858	0.2	47	1	0	12	11	13	10	0	0	0	stim014_stimuli_original_vehicles_planes_2.png	Q	0	0	0	77.9316177926376	78.1316166223842
97.258	0.2	48	1	0	12	12	4	14	0	0	0	stim005_stimuli_original_animals_fish_1.png	V	0	0	0	78.3316283739987	78.5316323236912
97.658	0.2	49	1	0	12	13	11	4	0	0	0	stim012_stimuli_original_vehicles_boats_4.png	E	0	0	0	78.7316235952894	78.9316433926579
98.058	0.2	50	1	0	12	14	12	5	0	0	0	stim013_stimuli_original_vehicles_planes_1.png	F	0	0	0	79.1316522185225	79.3316549492301
98.459	0.2	51	1	0	12	15	6	15	0	0	0	stim007_stimuli_original_animals_fish_3.png	Y	0	0	0	79.5321272568544	79.7316716257483
98.858	0.2	52	1	0	12	16	1	13	0	0	0	stim002_stimuli_original_animals_birds_2.png	U	0	0	0	79.931670211663	80.1316809880664
99.258	0.2	53	1	0	12	17	0	11	0	0	0	stim001_stimuli_original_animals_birds_1.png	R	0	0	0	80.3316866444075	80.5316881560721
99.658	0.2	54	1	0	12	18	11	0	0	0	0	stim012_stimuli_original_vehicles_boats_4.png	A	0	0	0	80.7316789400647	80.931680695503
100.058	0.2	55	1	0	12	19	13	1	0	0	0	stim014_stimuli_original_vehicles_planes_2.png	B	0	0	0	81.1317039061687	81.3317071244237
100.458	0.2	56	1	0	12	20	15	6	0	0	0	stim016_stimuli_original_vehicles_planes_4.png	G	0	0	0	81.5317142436397	81.7317086848198
100.858	0.2	57	1	0	12	21	5	12	0	0	0	stim006_stimuli_original_animals_fish_2.png	T	0	0	0	81.9317189735593	82.1317199975601
101.258	0.2	58	1	0	12	22	4	11	0	0	0	stim005_stimuli_original_animals_fish_1.png	R	0	0	0	82.3317322367802	82.5317344798241
101.658	0.2	59	1	0	12	23	14	4	0	0	0	stim015_stimuli_original_vehicles_planes_3.png	E	0	0	0	82.7317364790943	82.9317394535756
102.059	0.2	60	1	0	12	24	10	13	0	0	0	stim011_stimuli_original_vehicles_boats_3.png	U	0	0	0	83.1317548623192	83.3317524729646
102.459	0.2	61	1	0	12	25	2	10	0	0	0	stim003_stimuli_original_animals_birds_3.png	Q	0	0	0	83.531753984571	83.7317557400092
102.859	0.2	62	1	0	12	26	1	11	0	1	0	stim002_stimuli_original_animals_birds_2.png	R	0	0	0	83.9317652973696	84.1317475480027
103.259	0.2	63	1	0	12	27	9	3	0	0	0	stim010_stimuli_original_vehicles_boats_2.png	D	0	0	0	84.3317529606284	84.5317586169695
103.659	0.2	64	1	0	12	28	10	11	1	1	0	stim011_stimuli_original_vehicles_boats_3.png	R	0	0	0	84.7322045931942	84.9317743183346
104.059	0.2	65	1	0	12	29	6	15	0	0	0	stim007_stimuli_original_animals_fish_3.png	Y	0	0	0	85.1317750985036	85.3317907510791
104.459	0.2	66	1	0	12	30	10	5	1	0	1	stim011_stimuli_original_vehicles_boats_3.png	F	0	0	0	85.5318210321711	85.7317859723698
104.859	0.2	67	1	0	12	31	7	14	0	0	0	stim008_stimuli_original_animals_fish_4.png	V	NaN	86.1235835890984	1	85.9317952858983	86.1318138642237
105.259	0.2	68	1	0	12	32	8	9	0	0	0	stim009_stimuli_original_vehicles_boats_1.png	L	0	0	0	86.3318365872256	86.5318446817109
105.659	0.2	69	1	0	12	33	3	8	0	0	0	stim004_stimuli_original_animals_birds_4.png	K	0	0	0	86.7318203495233	86.9318350268295
106.059	0.2	70	1	0	12	34	0	7	0	0	0	stim001_stimuli_original_animals_birds_1.png	J	0	0	0	87.131827517529	87.3318626748514
106.459	0.2	71	1	0	12	35	12	2	0	0	0	stim013_stimuli_original_vehicles_planes_1.png	C	0	0	0	87.5318666245439	87.7318744751974
109.409	0.2	72	2	1	3	0	0	15	0	0	0	stim001_stimuli_original_animals_birds_1.png	Y	0	0	0	90.4819493247196	90.681946935365
109.809	0.2	73	2	1	3	1	11	9	0	0	0	stim012_stimuli_original_vehicles_boats_4.png	L	0	0	0	90.8819530793699	91.0819584919373
110.209	0.2	74	2	1	3	2	14	13	0	0	0	stim015_stimuli_original_vehicles_planes_3.png	U	0	0	0	91.2819668302545	91.481964197068
110.609	0.2	75	2	1	3	3	6	14	0	0	0	stim007_stimuli_original_animals_fish_3.png	V	0	0	0	91.6823931066319	91.8819830679568
111.009	0.2	76	2	1	3	4	1	12	0	0	0	stim002_stimuli_original_animals_birds_2.png	T	0	0	0	92.0819870176492	92.2819877978764
111.409	0.2	77	2	1	3	5	9	5	0	1	0	stim010_stimuli_original_vehicles_boats_2.png	F	0	0	0	92.4819995494909	92.6819986230112
111.809	0.2	78	2	1	3	6	2	10	0	0	0	stim003_stimuli_original_animals_birds_3.png	Q	0	0	0	92.8820037917467	93.0820113986265
112.209	0.2	79	2	1	3	7	15	5	0	1	1	stim016_stimuli_original_vehicles_planes_4.png	F	0	0	0	93.2820160797564	93.4820200294489
112.609	0.2	80	2	1	3	8	8	3	1	0	0	stim009_stimuli_original_vehicles_boats_1.png	D	0	0	0	93.6820232477621	93.882043288846
113.009	0.2	81	2	1	3	9	5	1	0	0	0	stim006_stimuli_original_animals_fish_2.png	B	0	0	0	94.0820443128468	94.2820485063712
113.409	0.2	82	2	1	3	10	8	4	1	0	0	stim009_stimuli_original_vehicles_boats_1.png	E	0	0	0	94.4820612332551	94.6820534801227
113.809	0.2	83	2	1	3	11	3	8	0	0	0	stim004_stimuli_original_animals_birds_4.png	K	0	0	0	94.8820559669402	95.0820867356961
114.209	0.2	84	2	1	3	12	4	11	0	0	0	stim005_stimuli_original_animals_fish_1.png	R	0	0	0	95.282072155911	95.4820709855994
114.609	0.2	85	2	1	3	13	7	5	0	0	0	stim008_stimuli_original_animals_fish_4.png	F	0	0	0	95.6820829810458	95.8820835174411
115.009	0.2	86	2	1	3	14	12	0	0	0	0	stim013_stimuli_original_vehicles_planes_1.png	A	0	0	0	96.0820899052196	96.2820933673065
115.409	0.2	87	2	1	3	15	10	2	0	0	0	stim011_stimuli_original_vehicles_boats_3.png	C	NaN	96.6738709916826	0	96.4821056065848	96.6821029733983
115.809	0.2	88	2	1	3	16	8	6	0	0	0	stim009_stimuli_original_vehicles_boats_1.png	G	0	0	0	96.8821205764543	97.0821137985913
116.209	0.2	89	2	1	3	17	13	7	0	0	0	stim014_stimuli_original_vehicles_planes_2.png	J	0	0	0	97.2821214054129	97.4821334008593
116.609	0.2	90	2	1	3	18	7	13	0	0	0	stim008_stimuli_original_animals_fish_4.png	U	0	0	0	97.6821317429421	97.8821364240721
117.009	0.2	91	2	1	3	19	6	8	0	0	0	stim007_stimuli_original_animals_fish_3.png	K	0	0	0	98.0821447623894	98.2821470054332
117.409	0.2	92	2	1	3	20	2	10	0	0	0	stim003_stimuli_original_animals_birds_3.png	Q	0	0	0	98.4821521741687	98.6821614876972
117.809	0.2	93	2	1	3	21	0	12	0	0	0	stim001_stimuli_original_animals_birds_1.png	T	0	0	0	98.882163730741	99.082169630914
118.209	0.2	94	2	1	3	22	5	7	0	0	0	stim006_stimuli_original_animals_fish_2.png	J	0	0	0	99.2821750434814	99.4821814313182
118.609	0.2	95	2	1	3	23	11	4	0	0	0	stim012_stimuli_original_vehicles_boats_4.png	E	0	0	0	99.6821822114871	99.882189574535
119.009	0.2	96	2	1	3	24	8	3	0	0	0	stim009_stimuli_original_vehicles_boats_1.png	D	0	0	0	100.082194743271	100.282204300631
119.409	0.2	97	2	1	3	25	4	8	0	1	0	stim005_stimuli_original_animals_fish_1.png	K	0	0	0	100.482210444636	100.682220489543
119.809	0.2	98	2	1	3	26	1	5	0	0	0	stim002_stimuli_original_animals_birds_2.png	F	0	0	0	100.882220294501	101.08222400042
120.209	0.2	99	2	1	3	27	3	8	0	1	1	stim004_stimuli_original_animals_birds_4.png	K	0	0	0	101.282230388257	101.482232387469
120.609	0.2	100	2	1	3	28	5	15	1	0	0	stim006_stimuli_original_animals_fish_2.png	Y	0	0	0	101.682231948595	101.882243456435
121.009	0.2	101	2	1	3	29	10	2	0	0	0	stim011_stimuli_original_vehicles_boats_3.png	C	0	0	0	102.082239360432	102.282257207262
121.409	0.2	102	2	1	3	30	5	9	1	0	0	stim006_stimuli_original_animals_fish_2.png	L	0	0	0	102.48226652079	102.68225047813
121.809	0.2	103	2	1	3	31	12	1	0	0	0	stim013_stimuli_original_vehicles_planes_1.png	B	0	0	0	102.882258816389	103.082256427093
122.209	0.2	104	2	1	3	32	14	6	0	0	0	stim015_stimuli_original_vehicles_planes_3.png	G	0	0	0	103.282280856802	103.482284806494
122.609	0.2	105	2	1	3	33	13	14	0	0	0	stim014_stimuli_original_vehicles_planes_2.png	V	0	0	0	103.682298752421	103.882280759281
123.009	0.2	106	2	1	3	34	9	11	0	0	0	stim010_stimuli_original_vehicles_boats_2.png	R	0	0	0	104.082302994677	104.28230889485
123.409	0.2	107	2	1	3	35	15	0	0	0	0	stim016_stimuli_original_vehicles_planes_4.png	A	0	0	0	104.482335031265	104.682319232379
126.009	0.2	108	3	0	29	0	9	0	0	0	0	stim010_stimuli_original_vehicles_boats_2.png	A	0	0	0	107.082383451809	107.282380331017
126.409	0.2	109	3	0	29	1	15	3	0	0	0	stim016_stimuli_original_vehicles_planes_4.png	D	0	0	0	107.482401347428	107.682397495199
126.809	0.2	110	3	0	29	2	2	15	0	0	0	stim003_stimuli_original_animals_birds_3.png	Y	0	0	0	107.882401932555	108.082409783208
127.209	0.2	111	3	0	29	3	8	9	0	0	0	stim009_stimuli_original_vehicles_boats_1.png	L	0	0	0	108.282411782478	108.482414513128
127.609	0.2	112	3	0	29	4	0	1	0	0	0	stim001_stimuli_original_animals_birds_1.png	B	0	0	0	108.682424558094	108.882595029601
128.009	0.2	113	3	0	29	5	14	4	0	0	0	stim015_stimuli_original_vehicles_planes_3.png	E	0	0	0	109.082431969873	109.282438601484
128.409	0.2	114	3	0	29	6	4	6	0	0	0	stim005_stimuli_original_animals_fish_1.png	G	0	0	0	109.482441575965	109.68244771997
128.809	0.2	115	3	0	29	7	0	5	1	0	0	stim001_stimuli_original_animals_birds_1.png	F	0	0	0	109.882453863975	110.082454644144
129.209	0.2	116	3	0	29	8	7	2	0	0	0	stim008_stimuli_original_animals_fish_4.png	C	0	0	0	110.282465664321	110.482465469278
129.609	0.2	117	3	0	29	9	0	13	1	0	1	stim001_stimuli_original_animals_birds_1.png	U	0	0	0	110.682474782807	110.882482389687
130.009	0.2	118	3	0	29	10	3	7	0	0	0	stim004_stimuli_original_animals_birds_4.png	J	0	0	0	111.082484876504	111.282485412899
130.409	0.2	119	3	0	29	11	12	15	0	1	0	stim013_stimuli_original_vehicles_planes_1.png	Y	NaN	111.674265719135	1	111.482499846432	111.68249965139
130.809	0.2	120	3	0	29	12	10	12	0	0	0	stim011_stimuli_original_vehicles_boats_3.png	T	0	0	0	111.882507258211	112.082506575563
131.209	0.2	121	3	0	29	13	11	15	0	1	0	stim012_stimuli_original_vehicles_boats_4.png	Y	0	0	0	112.282518083346	112.482523983577
131.609	0.2	122	3	0	29	14	6	11	0	0	0	stim007_stimuli_original_animals_fish_3.png	R	0	0	0	112.682535247528	112.882528469665
132.009	0.2	123	3	0	29	15	13	14	0	0	0	stim014_stimuli_original_vehicles_planes_2.png	V	0	0	0	113.082542903197	113.282539782405
132.409	0.2	124	3	0	29	16	5	10	0	0	0	stim006_stimuli_original_animals_fish_2.png	Q	0	0	0	113.482550802582	113.682552070415
132.809	0.2	125	3	0	29	17	1	8	0	0	0	stim002_stimuli_original_animals_birds_2.png	K	0	0	0	113.882562602987	114.082562651718
133.209	0.2	126	3	0	29	18	8	1	0	0	0	stim009_stimuli_original_vehicles_boats_1.png	B	0	0	0	114.282574159559	114.482574695896
133.609	0.2	127	3	0	29	19	10	5	0	0	0	stim011_stimuli_original_vehicles_boats_3.png	F	0	0	0	114.682582546608	114.8825601649
134.009	0.2	128	3	0	29	20	14	13	0	0	0	stim015_stimuli_original_vehicles_planes_3.png	U	0	0	0	115.082590445993	115.282592689036
134.409	0.2	129	3	0	29	21	11	6	0	0	0	stim012_stimuli_original_vehicles_boats_4.png	G	0	0	0	115.48260053969	115.682603758003
134.809	0.2	130	3	0	29	22	15	11	1	0	0	stim016_stimuli_original_vehicles_planes_4.png	R	0	0	0	115.882609902008	116.082614583138
135.209	0.2	131	3	0	29	23	12	10	0	0	0	stim013_stimuli_original_vehicles_planes_1.png	Q	0	0	0	116.282620970975	116.482627602585
135.609	0.2	132	3	0	29	24	15	12	1	0	1	stim016_stimuli_original_vehicles_planes_4.png	T	0	0	0	116.68264886277	116.882641841017
136.009	0.2	133	3	0	29	25	7	3	0	0	0	stim008_stimuli_original_animals_fish_4.png	D	NaN	117.274415564432	1	117.082645303104	117.282633649069
136.409	0.2	134	3	0	29	26	13	0	0	1	0	stim014_stimuli_original_vehicles_planes_2.png	A	0	0	0	117.482638817804	117.682657883677
136.809	0.2	135	3	0	29	27	2	7	0	0	0	stim003_stimuli_original_animals_birds_3.png	J	0	0	0	117.882666465768	118.082687238348
137.209	0.2	136	3	0	29	28	5	0	0	1	0	stim006_stimuli_original_animals_fish_2.png	A	0	0	0	118.282677290903	118.482654177817
137.609	0.2	137	3	0	29	29	6	4	0	0	0	stim007_stimuli_original_animals_fish_3.png	E	0	0	0	118.682655933197	118.882655250549
138.009	0.2	138	3	0	29	30	4	14	0	0	0	stim005_stimuli_original_animals_fish_1.png	V	0	0	0	119.082665295515	119.282669489039
138.41	0.2	139	3	0	29	31	1	0	0	0	0	stim002_stimuli_original_animals_birds_2.png	A	0	0	0	119.482952844352	119.682719323668
138.809	0.2	140	3	0	29	32	9	8	0	0	0	stim010_stimuli_original_vehicles_boats_2.png	K	0	0	0	119.882719128625	120.082722346939
139.209	0.2	141	3	0	29	33	15	2	0	0	0	stim016_stimuli_original_vehicles_planes_4.png	C	0	0	0	120.282732391846	120.482733659679
139.609	0.2	142	3	0	29	34	3	15	0	0	0	stim004_stimuli_original_animals_birds_4.png	Y	0	0	0	120.682742729376	120.882747898169
140.009	0.2	143	3	0	29	35	0	9	0	0	0	stim001_stimuli_original_animals_birds_1.png	L	0	0	0	121.082751847862	121.282737755682
142.526	0.2	144	4	1	20	0	9	1	0	0	0	stim010_stimuli_original_vehicles_boats_2.png	B	0	0	0	123.599499117932	123.799493071449
142.926	0.2	145	4	1	20	1	5	7	0	0	0	stim006_stimuli_original_animals_fish_2.png	J	0	0	0	123.999507748755	124.199505359458
143.326	0.2	146	4	1	20	2	1	0	0	0	0	stim002_stimuli_original_animals_birds_2.png	A	0	0	0	124.399516623409	124.599515940761
143.726	0.2	147	4	1	20	3	0	9	0	0	0	stim001_stimuli_original_animals_birds_1.png	L	0	0	0	124.799520621891	124.999506529712
144.126	0.2	148	4	1	20	4	2	2	0	0	0	stim003_stimuli_original_animals_birds_3.png	C	0	0	0	125.199529252772	125.399534909171
144.526	0.2	149	4	1	20	5	13	4	0	0	0	stim014_stimuli_original_vehicles_planes_2.png	E	0	0	0	125.599543491262	125.799543296162
144.926	0.2	150	4	1	20	6	6	6	0	0	0	stim007_stimuli_original_animals_fish_3.png	G	0	0	0	125.999554804002	126.199555828003
145.327	0.2	151	4	1	20	7	12	5	0	0	0	stim013_stimuli_original_vehicles_planes_1.png	F	0	0	0	126.400041301327	126.599574698834
145.726	0.2	152	4	1	20	8	15	13	0	1	0	stim016_stimuli_original_vehicles_planes_4.png	U	0	0	0	126.79956304474	126.999577234441
146.126	0.2	153	4	1	20	9	14	11	0	0	0	stim015_stimuli_original_vehicles_planes_3.png	R	0	0	0	127.199581184192	127.399586352927
146.526	0.2	154	4	1	20	10	12	13	1	1	1	stim013_stimuli_original_vehicles_planes_1.png	U	0	0	0	127.59958006267	127.799595227581
146.926	0.2	155	4	1	20	11	3	8	0	0	0	stim004_stimuli_original_animals_birds_4.png	K	NaN	128.191379434778	1	127.999616731599	128.199607271759
147.326	0.2	156	4	1	20	12	12	15	1	0	0	stim013_stimuli_original_vehicles_planes_1.png	Y	0	0	0	128.399620242475	128.599606881675
147.726	0.2	157	4	1	20	13	10	14	0	0	0	stim011_stimuli_original_vehicles_boats_3.png	V	0	0	0	128.799612050469	128.999629165861
148.126	0.2	158	4	1	20	14	8	3	0	0	0	stim009_stimuli_original_vehicles_boats_1.png	D	0	0	0	129.199635553698	129.399623168167
148.526	0.2	159	4	1	20	15	4	13	0	0	0	stim005_stimuli_original_animals_fish_1.png	U	0	0	0	129.59965466836	129.799649353314
148.926	0.2	160	4	1	20	16	7	10	0	0	0	stim008_stimuli_original_animals_fish_4.png	Q	0	0	0	129.999639405869	130.199661397492
149.326	0.2	161	4	1	20	17	11	12	0	0	0	stim012_stimuli_original_vehicles_boats_4.png	T	0	0	0	130.399690459541	130.599671978795
149.726	0.2	162	4	1	20	18	12	11	0	0	0	stim013_stimuli_original_vehicles_planes_1.png	R	0	0	0	130.799649109482	130.999681097281
150.126	0.2	163	4	1	20	19	10	7	0	0	0	stim011_stimuli_original_vehicles_boats_3.png	J	0	0	0	131.199687972723	131.399693629064
150.526	0.2	164	4	1	20	20	13	4	0	0	0	stim014_stimuli_original_vehicles_planes_2.png	E	0	0	0	131.599702454987	131.800085528346
150.926	0.2	165	4	1	20	21	3	8	0	0	0	stim004_stimuli_original_animals_birds_4.png	K	0	0	0	131.999712792516	132.199711378431
151.326	0.2	166	4	1	20	22	14	10	0	0	0	stim015_stimuli_original_vehicles_planes_3.png	Q	0	0	0	132.39972727478	132.599725373089
151.726	0.2	167	4	1	20	23	15	12	0	1	0	stim016_stimuli_original_vehicles_planes_4.png	T	0	0	0	132.799735661829	132.999718887731
152.126	0.2	168	4	1	20	24	8	3	0	0	0	stim009_stimuli_original_vehicles_boats_1.png	D	0	0	0	133.199741123186	133.399744341441
152.526	0.2	169	4	1	20	25	13	12	1	1	1	stim014_stimuli_original_vehicles_planes_2.png	T	0	0	0	133.599756824493	133.799752972322
152.926	0.2	170	4	1	20	26	11	14	0	0	0	stim012_stimuli_original_vehicles_boats_4.png	V	0	0	0	133.99976228585	134.199749656487
153.326	0.2	171	4	1	20	27	13	15	1	0	0	stim014_stimuli_original_vehicles_planes_2.png	Y	0	0	0	134.399779450032	134.599769258755
153.726	0.2	172	4	1	20	28	5	12	0	0	0	stim006_stimuli_original_animals_fish_2.png	T	0	0	0	134.799761018017	134.999770331546
154.126	0.2	173	4	1	20	29	6	6	0	0	0	stim007_stimuli_original_animals_fish_3.png	G	0	0	0	135.199795492692	135.399784569978
154.526	0.2	174	4	1	20	30	4	13	0	0	0	stim005_stimuli_original_animals_fish_1.png	U	0	0	0	135.5998065616	135.799827578012
154.926	0.2	175	4	1	20	31	2	2	0	0	0	stim003_stimuli_original_animals_birds_3.png	C	0	0	0	135.999816655356	136.199819629779
155.326	0.2	176	4	1	20	32	9	0	0	0	0	stim010_stimuli_original_vehicles_boats_2.png	A	0	0	0	136.399829430913	136.599833868269
155.726	0.2	177	4	1	20	33	0	1	0	0	0	stim001_stimuli_original_animals_birds_1.png	B	0	0	0	136.799840012274	136.999839329626
156.126	0.2	178	4	1	20	34	7	5	0	0	0	stim008_stimuli_original_animals_fish_4.png	F	0	0	0	137.199854006933	137.399852105242
156.526	0.2	179	4	1	20	35	1	9	0	0	0	stim002_stimuli_original_animals_birds_2.png	L	0	0	0	137.599857273977	137.799860979896
159.493	0.2	180	5	0	15	0	13	13	0	0	0	stim014_stimuli_original_vehicles_planes_2.png	U	0	0	0	140.566593621392	140.766600740608
159.893	0.2	181	5	0	15	1	7	9	0	0	0	stim008_stimuli_original_animals_fish_4.png	L	0	0	0	140.966604446527	141.166633996239
160.293	0.2	182	5	0	15	2	5	1	0	0	0	stim006_stimuli_original_animals_fish_2.png	B	0	0	0	141.36662258592	141.566620928061
160.693	0.2	183	5	0	15	3	9	12	0	0	0	stim010_stimuli_original_vehicles_boats_2.png	T	0	0	0	141.766649258672	141.966632484633
161.093	0.2	184	5	0	15	4	2	11	0	0	0	stim003_stimuli_original_animals_birds_3.png	R	0	0	0	142.166638872412	142.366643065936
161.493	0.2	185	5	0	15	5	3	3	0	0	0	stim004_stimuli_original_animals_birds_4.png	D	0	0	0	142.566650672816	142.766627315839
161.893	0.2	186	5	0	15	6	4	6	0	0	0	stim005_stimuli_original_animals_fish_1.png	G	0	0	0	142.96666222933	143.166680807655
162.293	0.2	187	5	0	15	7	10	5	0	0	0	stim011_stimuli_original_vehicles_boats_3.png	F	0	0	0	143.366669884999	143.566710162268
162.693	0.2	188	5	0	15	8	6	14	0	0	0	stim007_stimuli_original_animals_fish_3.png	V	0	0	0	143.766691193916	143.966691974085
163.093	0.2	189	5	0	15	9	15	8	0	0	0	stim016_stimuli_original_vehicles_planes_4.png	K	0	0	0	144.166692266706	144.366694753524
163.493	0.2	190	5	0	15	10	10	15	1	0	0	stim011_stimuli_original_vehicles_boats_3.png	Y	0	0	0	144.566712112748	144.766703384405
163.893	0.2	191	5	0	15	11	0	7	0	0	0	stim001_stimuli_original_animals_birds_1.png	J	0	0	0	144.966712210269	145.166715428582
164.293	0.2	192	5	0	15	12	10	5	1	1	1	stim011_stimuli_original_vehicles_boats_3.png	F	0	0	0	145.366721084982	145.566724303237
164.693	0.2	193	5	0	15	13	11	10	0	0	0	stim012_stimuli_original_vehicles_boats_4.png	Q	0	0	0	145.766734104371	145.966733177891
165.093	0.2	194	5	0	15	14	1	5	0	1	0	stim002_stimuli_original_animals_birds_2.png	F	0	0	0	146.166743710462	146.366751561116
165.493	0.2	195	5	0	15	15	8	0	0	0	0	stim009_stimuli_original_vehicles_boats_1.png	A	0	0	0	146.566752341343	146.766758485348
165.893	0.2	196	5	0	15	16	12	2	0	0	0	stim013_stimuli_original_vehicles_planes_1.png	C	0	0	0	146.966762678872	147.166770285694
166.293	0.2	197	5	0	15	17	14	4	0	0	0	stim015_stimuli_original_vehicles_planes_3.png	E	0	0	0	147.366773016343	147.5667774537
166.693	0.2	198	5	0	15	18	4	14	0	0	0	stim005_stimuli_original_animals_fish_1.png	V	0	0	0	147.766785548185	147.966790716921
167.093	0.2	199	5	0	15	19	2	12	0	0	0	stim003_stimuli_original_animals_birds_3.png	T	0	0	0	148.166795885714	148.366819827759
167.493	0.2	200	5	0	15	20	0	8	0	0	0	stim001_stimuli_original_animals_birds_1.png	K	0	0	0	148.566812562232	148.766813098628
167.893	0.2	201	5	0	15	21	5	1	1	0	0	stim006_stimuli_original_animals_fish_2.png	B	0	0	0	148.966818998801	149.166815634235
168.293	0.2	202	5	0	15	22	10	11	0	0	0	stim011_stimuli_original_vehicles_boats_3.png	R	NaN	149.359448737116	0	149.366829823935	149.566830604163
168.694	0.2	203	5	0	15	23	5	10	1	1	1	stim006_stimuli_original_animals_fish_2.png	Q	0	0	0	149.767271704157	149.966847768344
169.093	0.2	204	5	0	15	24	7	0	0	0	0	stim008_stimuli_original_animals_fish_4.png	A	0	0	0	150.166847085697	150.366854448745
169.493	0.2	205	5	0	15	25	15	10	0	1	0	stim016_stimuli_original_vehicles_planes_4.png	Q	0	0	0	150.566860592691	150.766862591961
169.893	0.2	206	5	0	15	26	8	15	0	0	0	stim009_stimuli_original_vehicles_boats_1.png	Y	0	0	0	150.966864591173	151.16687097901
170.293	0.2	207	5	0	15	27	14	6	0	0	0	stim015_stimuli_original_vehicles_planes_3.png	G	0	0	0	151.366879561101	151.566884242231
170.693	0.2	208	5	0	15	28	5	10	0	0	0	stim006_stimuli_original_animals_fish_2.png	Q	0	0	0	151.76689258049	151.966892141674
171.093	0.2	209	5	0	15	29	6	4	0	0	0	stim007_stimuli_original_animals_fish_3.png	E	0	0	0	152.166900723765	152.366903454415
171.493	0.2	210	5	0	15	30	3	3	0	0	0	stim004_stimuli_original_animals_birds_4.png	D	0	0	0	152.566912280337	152.766917692905
171.893	0.2	211	5	0	15	31	11	2	0	0	0	stim012_stimuli_original_vehicles_boats_4.png	C	0	0	0	152.96692383691	153.166928761813
172.293	0.2	212	5	0	15	32	12	9	0	0	0	stim013_stimuli_original_vehicles_planes_1.png	L	0	0	0	153.366930761083	153.566940562217
172.693	0.2	213	5	0	15	33	1	5	0	0	0	stim002_stimuli_original_animals_birds_2.png	F	0	0	0	153.766963041446	153.96695211879
173.093	0.2	214	5	0	15	34	9	7	0	0	0	stim010_stimuli_original_vehicles_boats_2.png	J	0	0	0	154.166954118002	154.366960749612
173.493	0.2	215	5	0	15	35	13	13	0	0	0	stim014_stimuli_original_vehicles_planes_2.png	U	0	0	0	154.56696811266	154.766994736681
176.177	0.2	216	6	1	36	0	5	5	0	0	0	stim006_stimuli_original_animals_fish_2.png	F	0	0	0	157.250378636061	157.450369663886
176.577	0.2	217	6	1	36	1	0	4	0	0	0	stim001_stimuli_original_animals_birds_1.png	E	0	0	0	157.650378733582	157.850381708064
176.977	0.2	218	6	1	36	2	7	9	0	0	0	stim008_stimuli_original_animals_fish_4.png	L	0	0	0	158.05039175303	158.250395458948
177.377	0.2	219	6	1	36	3	2	11	0	0	0	stim003_stimuli_original_animals_birds_3.png	R	0	0	0	158.450390387676	158.650411647861
177.777	0.2	220	6	1	36	4	13	10	0	0	0	stim014_stimuli_original_vehicles_planes_2.png	Q	0	0	0	158.850419010909	159.050423204433
178.177	0.2	221	6	1	36	5	8	3	0	1	0	stim009_stimuli_original_vehicles_boats_1.png	D	0	0	0	159.250415207469	159.450431103876
178.577	0.2	222	6	1	36	6	11	8	0	0	0	stim012_stimuli_original_vehicles_boats_4.png	K	0	0	0	159.650440661178	159.850441441406
178.977	0.2	223	6	1	36	7	15	3	0	1	1	stim016_stimuli_original_vehicles_planes_4.png	D	0	0	0	160.05045124254	160.250452022708
179.377	0.2	224	6	1	36	8	8	6	1	0	0	stim009_stimuli_original_vehicles_boats_1.png	G	NaN	160.650611815392	1	160.450427934353	160.650428958354
179.777	0.2	225	6	1	36	9	14	2	0	0	0	stim015_stimuli_original_vehicles_planes_3.png	C	0	0	0	160.850471673766	161.050479280588
180.177	0.2	226	6	1	36	10	8	7	1	0	0	stim009_stimuli_original_vehicles_boats_1.png	J	0	0	0	161.250478110334	161.450479621941
180.577	0.2	227	6	1	36	11	1	12	0	0	0	stim002_stimuli_original_animals_birds_2.png	T	0	0	0	161.650486984989	161.850473624247
180.977	0.2	228	6	1	36	12	4	13	0	0	0	stim005_stimuli_original_animals_fish_1.png	U	0	0	0	162.050489764428	162.25089965685
181.377	0.2	229	6	1	36	13	12	3	0	0	0	stim013_stimuli_original_vehicles_planes_1.png	D	0	0	0	162.450515218137	162.650515266869
181.777	0.2	230	6	1	36	14	9	15	0	0	0	stim010_stimuli_original_vehicles_boats_2.png	Y	0	0	0	162.850519947999	163.050526335835
182.177	0.2	231	6	1	36	15	6	0	0	0	0	stim007_stimuli_original_animals_fish_3.png	A	0	0	0	163.250533211278	163.450536429533
182.577	0.2	232	6	1	36	16	3	14	0	0	0	stim004_stimuli_original_animals_birds_4.png	V	0	0	0	163.650539647846	163.850529212796
182.977	0.2	233	6	1	36	17	10	1	0	0	0	stim011_stimuli_original_vehicles_boats_3.png	B	0	0	0	164.050551204418	164.250552716025
183.377	0.2	234	6	1	36	18	1	10	0	0	0	stim002_stimuli_original_animals_birds_2.png	Q	0	0	0	164.450565199077	164.650547693542
183.777	0.2	235	6	1	36	19	14	3	0	0	0	stim015_stimuli_original_vehicles_planes_3.png	D	0	0	0	164.850577487028	165.050574610126
184.177	0.2	236	6	1	36	20	0	6	0	0	0	stim001_stimuli_original_animals_birds_1.png	G	0	0	0	165.250582704553	165.45058714191
184.577	0.2	237	6	1	36	21	15	9	0	0	0	stim016_stimuli_original_vehicles_planes_4.png	L	0	0	0	165.650576706859	165.850596260396
184.977	0.2	238	6	1	36	22	3	12	0	0	0	stim004_stimuli_original_animals_birds_4.png	T	0	0	0	166.050606792967	166.250613668351
185.377	0.2	239	6	1	36	23	13	4	0	0	0	stim014_stimuli_original_vehicles_planes_2.png	E	0	0	0	166.450618105708	166.650618885877
185.777	0.2	240	6	1	36	24	12	1	0	0	0	stim013_stimuli_original_vehicles_planes_1.png	B	0	0	0	166.850607719447	167.050632636761
186.177	0.2	241	6	1	36	25	7	8	0	1	0	stim008_stimuli_original_animals_fish_4.png	K	0	0	0	167.250637561665	167.450637122849
186.577	0.2	242	6	1	36	26	2	14	0	0	0	stim003_stimuli_original_animals_birds_3.png	V	0	0	0	167.650635952537	167.850651605113
186.977	0.2	243	6	1	36	27	6	8	0	1	1	stim007_stimuli_original_animals_fish_3.png	K	0	0	0	168.050656530075	168.250659992162
187.377	0.2	244	6	1	36	28	3	15	1	0	0	stim004_stimuli_original_animals_birds_4.png	Y	0	0	0	168.450670037128	168.65065887064
187.777	0.2	245	6	1	36	29	8	11	0	0	0	stim009_stimuli_original_vehicles_boats_1.png	R	0	0	0	168.850668915606	169.050673840509
188.177	0.2	246	6	1	36	30	3	8	1	0	0	stim004_stimuli_original_animals_birds_4.png	K	0	0	0	169.250683154038	169.450683202827
188.577	0.2	247	6	1	36	31	10	13	0	0	0	stim011_stimuli_original_vehicles_boats_3.png	U	NaN	169.842458632891	1	169.650694223004	169.850696466048
188.977	0.2	248	6	1	36	32	11	2	0	0	0	stim012_stimuli_original_vehicles_boats_4.png	C	0	0	0	170.050699684361	170.2507146055
189.377	0.2	249	6	1	36	33	9	7	0	0	0	stim010_stimuli_original_vehicles_boats_2.png	J	0	0	0	170.450724650407	170.650708120142
189.777	0.2	250	6	1	36	34	4	0	0	0	0	stim005_stimuli_original_animals_fish_1.png	A	0	0	0	170.850718652713	171.050733086246
190.177	0.2	251	6	1	36	35	5	5	0	0	0	stim006_stimuli_original_animals_fish_2.png	F	0	0	0	171.250742643548	171.450747812341
193.294	0.2	252	7	0	22	0	2	13	0	0	0	stim003_stimuli_original_animals_birds_3.png	U	0	0	0	174.367495667539	174.567497422977
193.694	0.2	253	7	0	22	1	1	5	0	0	0	stim002_stimuli_original_animals_birds_2.png	F	0	0	0	174.767495033622	174.967510686198
194.094	0.2	254	7	0	22	2	7	12	0	0	0	stim008_stimuli_original_animals_fish_4.png	T	0	0	0	175.167505858757	175.367521511333
194.494	0.2	255	7	0	22	3	0	14	0	0	0	stim001_stimuli_original_animals_birds_1.png	V	0	0	0	175.567530337255	175.767535505991
194.894	0.2	256	7	0	22	4	15	4	0	0	0	stim016_stimuli_original_vehicles_planes_4.png	E	0	0	0	175.967540430953	176.167529995902
195.294	0.2	257	7	0	22	5	2	0	1	0	0	stim003_stimuli_original_animals_birds_3.png	A	0	0	0	176.367547598958	176.567559350573
195.694	0.2	258	7	0	22	6	3	15	0	0	0	stim004_stimuli_original_animals_birds_4.png	Y	0	0	0	176.76755988691	176.967563105223
196.094	0.2	259	7	0	22	7	2	6	1	0	1	stim003_stimuli_original_animals_birds_3.png	G	0	0	0	177.167572662525	177.367568566522
196.494	0.2	260	7	0	22	8	5	1	0	0	0	stim006_stimuli_original_animals_fish_2.png	B	0	0	0	177.567566664831	177.767583292618
196.894	0.2	261	7	0	22	9	9	8	0	0	0	stim010_stimuli_original_vehicles_boats_2.png	K	0	0	0	177.967593093752	178.167593386373
197.294	0.2	262	7	0	22	10	13	10	0	0	0	stim014_stimuli_original_vehicles_planes_2.png	Q	0	0	0	178.367609282723	178.567604211508
197.694	0.2	263	7	0	22	11	8	7	0	0	0	stim009_stimuli_original_vehicles_boats_1.png	J	0	0	0	178.767611574556	178.967615036643
198.094	0.2	264	7	0	22	12	10	6	0	1	0	stim011_stimuli_original_vehicles_boats_3.png	G	0	0	0	179.167614110163	179.367624398903
198.494	0.2	265	7	0	22	13	11	3	0	0	0	stim012_stimuli_original_vehicles_boats_4.png	D	0	0	0	179.567615914333	179.767618644983
198.894	0.2	266	7	0	22	14	12	6	0	1	0	stim013_stimuli_original_vehicles_planes_1.png	G	0	0	0	179.967648194695	180.167645805399
199.295	0.2	267	7	0	22	15	6	9	0	0	0	stim007_stimuli_original_animals_fish_3.png	L	0	0	0	180.368121038715	180.56765053526
199.694	0.2	268	7	0	22	16	14	11	0	0	0	stim015_stimuli_original_vehicles_planes_3.png	R	0	0	0	180.76766570023	180.967665992794
200.094	0.2	269	7	0	22	17	4	2	0	0	0	stim005_stimuli_original_animals_fish_1.png	C	0	0	0	181.167660921579	181.367678280803
200.494	0.2	270	7	0	22	18	2	4	0	0	0	stim003_stimuli_original_animals_birds_3.png	E	0	0	0	181.567684424808	181.767687643063
200.894	0.2	271	7	0	22	19	11	14	0	0	0	stim012_stimuli_original_vehicles_boats_4.png	V	0	0	0	181.967697444197	182.16770066251
201.294	0.2	272	7	0	22	20	9	6	0	0	0	stim010_stimuli_original_vehicles_boats_2.png	G	0	0	0	182.36770900077	182.567710268602
201.694	0.2	273	7	0	22	21	6	12	1	0	0	stim007_stimuli_original_animals_fish_3.png	T	0	0	0	182.767711780209	182.967722800386
202.094	0.2	274	7	0	22	22	3	11	0	0	0	stim004_stimuli_original_animals_birds_4.png	R	0	0	0	183.167698468198	183.367731187434
202.494	0.2	275	7	0	22	23	6	10	1	0	1	stim007_stimuli_original_animals_fish_3.png	Q	0	0	0	183.56773830665	183.767724945908
202.894	0.2	276	7	0	22	24	7	8	0	0	0	stim008_stimuli_original_animals_fish_4.png	K	NaN	183.960370239278	1	183.967751326098	184.167756251059
203.294	0.2	277	7	0	22	25	10	13	0	0	0	stim011_stimuli_original_vehicles_boats_3.png	U	0	0	0	184.367782143643	184.567763175233
203.694	0.2	278	7	0	22	26	8	9	0	0	0	stim009_stimuli_original_vehicles_boats_1.png	L	0	0	0	184.767775658285	184.967758640356
204.094	0.2	279	7	0	22	27	1	5	0	0	0	stim002_stimuli_original_animals_birds_2.png	F	0	0	0	185.167785264377	185.367786775983
204.494	0.2	280	7	0	22	28	6	2	0	1	0	stim007_stimuli_original_animals_fish_3.png	C	0	0	0	185.56777804764	185.768246698135
204.894	0.2	281	7	0	22	29	15	3	0	0	0	stim016_stimuli_original_vehicles_planes_4.png	D	0	0	0	185.967804476561	186.167808182479
205.294	0.2	282	7	0	22	30	0	2	0	1	0	stim001_stimuli_original_animals_birds_1.png	C	0	0	0	186.367816276907	186.56779779616
205.694	0.2	283	7	0	22	31	4	15	0	0	0	stim005_stimuli_original_animals_fish_1.png	Y	0	0	0	186.767811742087	186.967825444182
206.094	0.2	284	7	0	22	32	14	0	0	0	0	stim015_stimuli_original_vehicles_planes_3.png	A	0	0	0	187.167820860574	187.367830174102
206.494	0.2	285	7	0	22	33	12	7	0	0	0	stim013_stimuli_original_vehicles_planes_1.png	J	0	0	0	187.567821689532	187.767846119183
206.894	0.2	286	7	0	22	34	5	1	0	0	0	stim006_stimuli_original_animals_fish_2.png	B	0	0	0	187.967849093664	188.167853043415
207.294	0.2	287	7	0	22	35	13	2	0	0	0	stim014_stimuli_original_vehicles_planes_2.png	C	NaN	188.360453719622	0	188.367859918799	188.567866306636
210.761	0.2	288	8	1	38	0	9	8	0	0	0	stim010_stimuli_original_vehicles_boats_2.png	K	0	0	0	191.834627473843	192.034625815926
211.161	0.2	289	8	1	38	1	5	4	0	0	0	stim006_stimuli_original_animals_fish_2.png	E	0	0	0	192.234633422806	192.434640542022
211.561	0.2	290	8	1	38	2	8	2	0	0	0	stim009_stimuli_original_vehicles_boats_1.png	C	0	0	0	192.634651318425	192.834653805243
211.961	0.2	291	8	1	38	3	14	1	0	0	0	stim015_stimuli_original_vehicles_planes_3.png	B	0	0	0	193.034648977802	193.234642687545
212.361	0.2	292	8	1	38	4	4	10	0	0	0	stim005_stimuli_original_animals_fish_1.png	Q	0	0	0	193.434653463948	193.635047996358
212.761	0.2	293	8	1	38	5	13	15	0	0	0	stim014_stimuli_original_vehicles_planes_2.png	Y	0	0	0	193.834684525267	194.034681892081
213.161	0.2	294	8	1	38	6	6	0	0	0	0	stim007_stimuli_original_animals_fish_3.png	A	0	0	0	194.23468754848	194.434674675344
213.561	0.2	295	8	1	38	7	1	3	0	0	0	stim002_stimuli_original_animals_birds_2.png	D	0	0	0	194.634701055533	194.834702323307
213.961	0.2	296	8	1	38	8	7	11	0	0	0	stim008_stimuli_original_animals_fish_4.png	R	0	0	0	195.034710661625	195.234710466582
214.361	0.2	297	8	1	38	9	2	13	0	1	0	stim003_stimuli_original_animals_birds_3.png	U	0	0	0	195.434721242927	195.634701055533
214.761	0.2	298	8	1	38	10	1	5	1	0	0	stim002_stimuli_original_animals_birds_2.png	F	0	0	0	195.834729629976	196.034730410203
215.161	0.2	299	8	1	38	11	12	13	0	1	1	stim013_stimuli_original_vehicles_planes_1.png	U	0	0	0	196.234756058955	196.434743429592
215.561	0.2	300	8	1	38	12	1	7	1	0	0	stim002_stimuli_original_animals_birds_2.png	J	0	0	0	196.634750061203	196.834753279516
215.961	0.2	301	8	1	38	13	15	14	0	0	0	stim016_stimuli_original_vehicles_planes_4.png	V	NaN	197.226527978142	1	197.034762349213	197.234749476076
216.361	0.2	302	8	1	38	14	10	13	0	0	0	stim011_stimuli_original_vehicles_boats_3.png	U	0	0	0	197.434770980093	197.634791752615
216.761	0.2	303	8	1	38	15	0	9	0	0	0	stim001_stimuli_original_animals_birds_1.png	L	0	0	0	197.834784243314	198.034786242526
217.161	0.2	304	8	1	38	16	3	6	0	0	0	stim004_stimuli_original_animals_birds_4.png	G	0	0	0	198.234791655093	198.434795848618
217.561	0.2	305	8	1	38	17	11	12	0	0	0	stim012_stimuli_original_vehicles_boats_4.png	T	0	0	0	198.634807356459	198.834805942315
217.961	0.2	306	8	1	38	18	12	11	0	0	0	stim013_stimuli_original_vehicles_planes_1.png	R	0	0	0	199.034805747273	199.234802870371
218.361	0.2	307	8	1	38	19	6	3	0	0	0	stim007_stimuli_original_animals_fish_3.png	D	0	0	0	199.434826080978	199.634830274503
218.761	0.2	308	8	1	38	20	9	0	0	0	0	stim010_stimuli_original_vehicles_boats_2.png	A	0	0	0	199.834812037589	200.034842318681
219.161	0.2	309	8	1	38	21	13	10	0	0	0	stim014_stimuli_original_vehicles_planes_2.png	Q	0	0	0	200.234828226501	200.434832663857
219.561	0.2	310	8	1	38	22	14	15	0	0	0	stim015_stimuli_original_vehicles_planes_3.png	Y	0	0	0	200.634855874523	200.834860311821
219.961	0.2	311	8	1	38	23	7	1	0	1	0	stim008_stimuli_original_animals_fish_4.png	B	0	0	0	201.034869137744	201.234870893182
220.361	0.2	312	8	1	38	24	13	12	1	0	0	stim014_stimuli_original_vehicles_planes_2.png	T	0	0	0	201.434879475273	201.634880743048
220.761	0.2	313	8	1	38	25	5	1	0	1	1	stim006_stimuli_original_animals_fish_2.png	B	0	0	0	201.834889325139	202.034892055846
221.161	0.2	314	8	1	38	26	13	2	1	0	0	stim014_stimuli_original_vehicles_planes_2.png	C	0	0	0	202.234898687457	202.434902637149
221.561	0.2	315	8	1	38	27	11	7	0	0	0	stim012_stimuli_original_vehicles_boats_4.png	J	0	0	0	202.634908781154	202.834935161343
221.961	0.2	316	8	1	38	28	3	1	0	0	0	stim004_stimuli_original_animals_birds_4.png	B	NaN	203.027498534706	1	203.034923994855	203.234922336938
222.361	0.2	317	8	1	38	29	0	6	0	0	0	stim001_stimuli_original_animals_birds_1.png	G	0	0	0	203.434917509556	203.634933649737
222.761	0.2	318	8	1	38	30	15	13	0	0	0	stim016_stimuli_original_vehicles_planes_4.png	U	0	0	0	203.834946376563	204.034946669126
223.162	0.2	319	8	1	38	31	10	4	0	0	0	stim011_stimuli_original_vehicles_boats_3.png	E	0	0	0	204.235472127213	204.434959200968
223.561	0.2	320	8	1	38	32	1	14	0	0	0	stim002_stimuli_original_animals_birds_2.png	V	0	0	0	204.634966564015	204.834969294665
223.961	0.2	321	8	1	38	33	2	8	0	0	0	stim003_stimuli_original_animals_birds_3.png	K	0	0	0	205.034974951064	205.234977925487
224.361	0.2	322	8	1	38	34	4	5	0	0	0	stim005_stimuli_original_animals_fish_1.png	F	0	0	0	205.434983338113	205.634966320184
224.761	0.2	323	8	1	38	35	8	9	0	0	0	stim009_stimuli_original_vehicles_boats_1.png	L	0	0	0	205.834992456541	206.035000307194
227.778	0.2	324	9	0	21	0	13	13	0	0	0	stim014_stimuli_original_vehicles_planes_2.png	U	0	0	0	208.851733143791	209.051738068694
228.178	0.2	325	9	0	21	1	14	8	0	0	0	stim015_stimuli_original_vehicles_planes_3.png	K	0	0	0	209.251743968925	209.451747674786
228.578	0.2	326	9	0	21	2	1	6	0	0	0	stim002_stimuli_original_animals_birds_2.png	G	0	0	0	209.651752599748	209.851763132319
228.978	0.2	327	9	0	21	3	9	11	0	0	0	stim010_stimuli_original_vehicles_boats_2.png	R	0	0	0	210.051761474402	210.251780296501
229.378	0.2	328	9	0	21	4	6	12	0	0	0	stim007_stimuli_original_animals_fish_3.png	T	0	0	0	210.451773030974	210.651778931206
229.778	0.2	329	9	0	21	5	5	15	0	0	0	stim006_stimuli_original_animals_fish_2.png	Y	0	0	0	210.85178312473	211.051789512509
230.178	0.2	330	9	0	21	6	11	3	0	0	0	stim012_stimuli_original_vehicles_boats_4.png	D	0	0	0	211.251797606994	211.451798387163
230.578	0.2	331	9	0	21	7	4	0	0	0	0	stim005_stimuli_original_animals_fish_1.png	A	0	0	0	211.652166588174	211.851814088528
230.978	0.2	332	9	0	21	8	10	14	0	0	0	stim011_stimuli_original_vehicles_boats_3.png	V	0	0	0	212.051819988701	212.251822231745
231.378	0.2	333	9	0	21	9	15	11	1	1	0	stim016_stimuli_original_vehicles_planes_4.png	R	0	0	0	212.451826669043	212.651832325442
231.778	0.2	334	9	0	21	10	7	2	0	0	0	stim008_stimuli_original_animals_fish_4.png	C	0	0	0	212.851836762798	213.051841687702
232.178	0.2	335	9	0	21	11	15	11	1	1	1	stim016_stimuli_original_vehicles_planes_4.png	R	0	0	0	213.251852951711	213.451849587145
232.578	0.2	336	9	0	21	12	8	1	0	0	0	stim009_stimuli_original_vehicles_boats_1.png	B	0	0	0	213.651861826365	213.851859680843
232.978	0.2	337	9	0	21	13	3	5	0	0	0	stim004_stimuli_original_animals_birds_4.png	F	0	0	0	214.051871188683	214.251880502212
233.378	0.2	338	9	0	21	14	0	10	0	0	0	stim001_stimuli_original_animals_birds_1.png	Q	0	0	0	214.451879088068	214.651881818776
233.778	0.2	339	9	0	21	15	15	4	0	0	0	stim016_stimuli_original_vehicles_planes_4.png	E	0	0	0	214.851891863684	215.051892643911
234.178	0.2	340	9	0	21	16	12	9	0	0	0	stim013_stimuli_original_vehicles_planes_1.png	L	0	0	0	215.251904395525	215.45190761378
234.578	0.2	341	9	0	21	17	2	7	0	0	0	stim003_stimuli_original_animals_birds_3.png	J	0	0	0	215.651928873966	215.851915513224
234.978	0.2	342	9	0	21	18	7	2	0	0	0	stim008_stimuli_original_animals_fish_4.png	C	0	0	0	216.051923363877	216.251929507882
235.378	0.2	343	9	0	21	19	9	12	0	0	0	stim010_stimuli_original_vehicles_boats_2.png	T	0	0	0	216.451932969969	216.651938626368
235.778	0.2	344	9	0	21	20	4	15	0	0	0	stim005_stimuli_original_animals_fish_1.png	Y	0	0	0	216.851943795104	217.052374655148
236.178	0.2	345	9	0	21	21	10	0	0	0	0	stim011_stimuli_original_vehicles_boats_3.png	A	0	0	0	217.251958521199	217.451962227118
236.578	0.2	346	9	0	21	22	5	3	0	0	0	stim006_stimuli_original_animals_fish_2.png	D	0	0	0	217.651963738725	217.851971345604
236.978	0.2	347	9	0	21	23	1	8	0	0	0	stim002_stimuli_original_animals_birds_2.png	K	0	0	0	218.051975539129	218.251981683134
237.378	0.2	348	9	0	21	24	11	15	1	1	0	stim012_stimuli_original_vehicles_boats_4.png	Y	0	0	0	218.451966615685	218.651992752042
237.778	0.2	349	9	0	21	25	2	7	0	0	0	stim003_stimuli_original_animals_birds_3.png	J	0	0	0	218.851997920836	219.052000895317
238.178	0.2	350	9	0	21	26	11	15	1	1	1	stim012_stimuli_original_vehicles_boats_4.png	Y	0	0	0	219.252009721182	219.45199075283
238.578	0.2	351	9	0	21	27	14	10	0	0	0	stim015_stimuli_original_vehicles_planes_3.png	Q	0	0	0	219.652020790149	219.852018400794
238.978	0.2	352	9	0	21	28	0	4	0	0	0	stim001_stimuli_original_animals_birds_1.png	E	0	0	0	220.052020643838	220.252038490726
239.378	0.2	353	9	0	21	29	3	11	0	0	0	stim004_stimuli_original_animals_birds_4.png	R	0	0	0	220.452044147067	220.652046390111
239.778	0.2	354	9	0	21	30	15	5	0	0	0	stim016_stimuli_original_vehicles_planes_4.png	F	0	0	0	220.852037417935	221.052058921952
240.178	0.2	355	9	0	21	31	12	6	0	0	0	stim013_stimuli_original_vehicles_planes_1.png	G	0	0	0	221.252065309731	221.452065846126
240.578	0.2	356	9	0	21	32	11	9	0	0	0	stim012_stimuli_original_vehicles_boats_4.png	L	0	0	0	221.652056630119	221.852077402698
240.978	0.2	357	9	0	21	33	6	1	0	0	0	stim007_stimuli_original_animals_fish_3.png	B	0	0	0	222.052087203832	222.252091397357
241.378	0.2	358	9	0	21	34	8	14	0	0	0	stim009_stimuli_original_vehicles_boats_1.png	V	0	0	0	222.452104611846	222.652085399663
241.778	0.2	359	9	0	21	35	13	13	0	0	0	stim014_stimuli_original_vehicles_planes_2.png	U	0	0	0	222.852087642706	223.052107927622
245.245	0.2	360	10	1	12	0	2	12	0	0	0	stim003_stimuli_original_animals_birds_3.png	T	NaN	226.311561394657	0	226.31885397865	226.518857196963
245.645	0.2	361	10	1	12	1	7	0	0	0	0	stim008_stimuli_original_animals_fish_4.png	A	0	0	0	226.718879676191	226.918877530668
246.045	0.2	362	10	1	12	2	8	3	0	0	0	stim009_stimuli_original_vehicles_boats_1.png	D	0	0	0	227.118891720369	227.318891525327
246.445	0.2	363	10	1	12	3	9	8	0	0	0	stim010_stimuli_original_vehicles_boats_2.png	K	0	0	0	227.518918880727	227.718903569505
246.845	0.2	364	10	1	12	4	14	7	0	0	0	stim015_stimuli_original_vehicles_planes_3.png	J	0	0	0	227.918910201115	228.118901716545
247.245	0.2	365	10	1	12	5	5	10	0	1	0	stim006_stimuli_original_animals_fish_2.png	Q	0	0	0	228.318924927211	228.518929120735
247.645	0.2	366	10	1	12	6	15	6	0	0	0	stim016_stimuli_original_vehicles_planes_4.png	G	0	0	0	228.718938434264	228.918954330613
248.045	0.2	367	10	1	12	7	11	10	1	1	1	stim012_stimuli_original_vehicles_boats_4.png	Q	0	0	0	229.118943651789	229.318935410993
248.445	0.2	368	10	1	12	8	3	9	0	0	0	stim004_stimuli_original_animals_birds_4.png	L	0	0	0	229.51893887308	229.718958670448
248.845	0.2	369	10	1	12	9	11	1	1	0	0	stim012_stimuli_original_vehicles_boats_4.png	B	0	0	0	229.918949942046	230.118950478442
249.245	0.2	370	10	1	12	10	10	2	0	0	0	stim011_stimuli_original_vehicles_boats_3.png	C	0	0	0	230.31898051576	230.518956671178
249.645	0.2	371	10	1	12	11	13	10	0	0	0	stim014_stimuli_original_vehicles_planes_2.png	Q	0	0	0	230.718962815183	230.918990170583
250.045	0.2	372	10	1	12	12	4	14	0	0	0	stim005_stimuli_original_animals_fish_1.png	V	0	0	0	231.118980223197	231.318982710014
250.445	0.2	373	10	1	12	13	11	4	0	0	0	stim012_stimuli_original_vehicles_boats_4.png	E	0	0	0	231.51897958928	231.719006944681
250.845	0.2	374	10	1	12	14	12	5	0	0	0	stim013_stimuli_original_vehicles_planes_1.png	F	0	0	0	231.919016014377	232.119022402214
251.245	0.2	375	10	1	12	15	6	15	0	0	0	stim007_stimuli_original_animals_fish_3.png	Y	0	0	0	232.319028546219	232.519030545431
251.645	0.2	376	10	1	12	16	1	13	0	0	0	stim002_stimuli_original_animals_birds_2.png	U	0	0	0	232.719044003752	232.919038688706
252.045	0.2	377	10	1	12	17	0	11	0	0	0	stim001_stimuli_original_animals_birds_1.png	R	0	0	0	233.11904848984	233.319029277656
252.445	0.2	378	10	1	12	18	11	0	0	0	0	stim012_stimuli_original_vehicles_boats_4.png	A	0	0	0	233.519029326388	233.71903327608
252.845	0.2	379	10	1	12	19	13	1	0	0	0	stim014_stimuli_original_vehicles_planes_2.png	B	0	0	0	233.919041370566	234.119065556501
253.245	0.2	380	10	1	12	20	15	6	0	0	0	stim016_stimuli_original_vehicles_planes_4.png	G	0	0	0	234.319059266185	234.519083695894
253.645	0.2	381	10	1	12	21	5	12	0	0	0	stim006_stimuli_original_animals_fish_2.png	T	0	0	0	234.719094472297	234.919097202946
254.045	0.2	382	10	1	12	22	4	11	0	0	0	stim005_stimuli_original_animals_fish_1.png	R	0	0	0	235.119100665033	235.319089498546
254.446	0.2	383	10	1	12	23	14	4	0	0	0	stim015_stimuli_original_vehicles_planes_3.png	E	0	0	0	235.519572777615	235.719124948431
254.845	0.2	384	10	1	12	24	10	13	0	0	0	stim011_stimuli_original_vehicles_boats_3.png	U	0	0	0	235.919127435307	236.119108223123
255.245	0.2	385	10	1	12	25	2	10	0	0	0	stim003_stimuli_original_animals_birds_3.png	Q	0	0	0	236.319136553793	236.519119535864
255.645	0.2	386	10	1	12	26	1	11	0	1	0	stim002_stimuli_original_animals_birds_2.png	R	0	0	0	236.719143477967	236.919136456272
256.045	0.2	387	10	1	12	27	9	3	0	0	0	stim010_stimuli_original_vehicles_boats_2.png	D	0	0	0	237.119144550757	237.319156789978
256.445	0.2	388	10	1	12	28	10	11	1	1	1	stim011_stimuli_original_vehicles_boats_3.png	R	0	0	0	237.51916366542	237.719168834155
256.845	0.2	389	10	1	12	29	6	15	0	0	0	stim007_stimuli_original_animals_fish_3.png	Y	0	0	0	237.919177660078	238.119182341208
257.245	0.2	390	10	1	12	30	10	5	1	0	0	stim011_stimuli_original_vehicles_boats_3.png	F	0	0	0	238.319186778506	238.519192922511
257.645	0.2	391	10	1	12	31	7	14	0	0	0	stim008_stimuli_original_animals_fish_4.png	V	NaN	238.711733621662	1	238.719197359867	238.919181073376
258.045	0.2	392	10	1	12	32	8	9	0	0	0	stim009_stimuli_original_vehicles_boats_1.png	L	0	0	0	239.119206234522	239.319208965171
258.445	0.2	393	10	1	12	33	3	8	0	0	0	stim004_stimuli_original_animals_birds_4.png	K	0	0	0	239.519224130141	239.719222716056
258.845	0.2	394	10	1	12	34	0	7	0	0	0	stim001_stimuli_original_animals_birds_1.png	J	0	0	0	239.919227397186	240.119231346878
259.245	0.2	395	10	1	12	35	12	2	0	0	0	stim013_stimuli_original_vehicles_planes_1.png	C	0	0	0	240.319238222321	240.519225593016
262.729	0.2	396	11	0	31	0	1	7	0	0	0	stim002_stimuli_original_animals_birds_2.png	J	0	0	0	243.802658205503	244.002660448547
263.129	0.2	397	11	0	31	1	7	4	0	0	0	stim008_stimuli_original_animals_fish_4.png	E	0	0	0	244.202665861114	244.402669079427
263.529	0.2	398	11	0	31	2	6	0	0	0	0	stim007_stimuli_original_animals_fish_3.png	A	0	0	0	244.602678392956	244.80267966073
263.929	0.2	399	11	0	31	3	8	2	0	0	0	stim009_stimuli_original_vehicles_boats_1.png	C	0	0	0	245.002688730485	245.202693655447
264.329	0.2	400	11	0	31	4	9	6	0	0	0	stim010_stimuli_original_vehicles_boats_2.png	G	0	0	0	245.402701018436	245.602707406273
264.729	0.2	401	11	0	31	5	14	10	0	0	0	stim015_stimuli_original_vehicles_planes_3.png	Q	0	0	0	245.802696483617	246.00271847524
265.129	0.2	402	11	0	31	6	4	11	0	0	0	stim005_stimuli_original_animals_fish_1.png	R	0	0	0	246.202706821146	246.402730275586
265.529	0.2	403	11	0	31	7	15	12	0	0	0	stim016_stimuli_original_vehicles_planes_4.png	T	0	0	0	246.602740564325	246.802724521665
265.929	0.2	404	11	0	31	8	2	5	0	0	0	stim003_stimuli_original_animals_birds_3.png	F	0	0	0	247.0027487076	247.202755339211
266.329	0.2	405	11	0	31	9	0	3	0	1	0	stim001_stimuli_original_animals_birds_1.png	D	0	0	0	247.402766846993	247.602765432908
266.729	0.2	406	11	0	31	10	4	15	1	0	0	stim005_stimuli_original_animals_fish_1.png	Y	0	0	0	247.802758898819	248.002756265691
267.129	0.2	407	11	0	31	11	5	3	0	1	0	stim006_stimuli_original_animals_fish_2.png	D	0	0	0	248.202783377317	248.402767578431
267.529	0.2	408	11	0	31	12	4	13	1	0	1	stim005_stimuli_original_animals_fish_1.png	U	0	0	0	248.602778354834	248.803004171117
267.929	0.2	409	11	0	31	13	3	8	0	0	0	stim004_stimuli_original_animals_birds_4.png	K	0	0	0	249.002786741883	249.202789472532
268.329	0.2	410	11	0	31	14	12	14	0	0	0	stim013_stimuli_original_vehicles_planes_1.png	V	NaN	249.594586113992	1	249.40281560889	249.602815413848
268.729	0.2	411	11	0	31	15	10	3	0	0	0	stim011_stimuli_original_vehicles_boats_3.png	D	0	0	0	249.802823264501	250.002824288502
269.129	0.2	412	11	0	31	16	11	1	0	0	0	stim012_stimuli_original_vehicles_boats_4.png	B	0	0	0	250.202837259159	250.402840477473
269.529	0.2	413	11	0	31	17	13	9	0	0	0	stim014_stimuli_original_vehicles_planes_2.png	L	0	0	0	250.602843451954	250.802847645478
269.929	0.2	414	11	0	31	18	9	13	0	0	0	stim010_stimuli_original_vehicles_boats_2.png	U	0	0	0	251.002853789483	251.202840184909
270.329	0.2	415	11	0	31	19	1	11	0	0	0	stim002_stimuli_original_animals_birds_2.png	R	0	0	0	251.40286949079	251.602891970018
270.729	0.2	416	11	0	31	20	3	10	0	0	0	stim004_stimuli_original_animals_birds_4.png	Q	0	0	0	251.802876414964	252.002884021844
271.129	0.2	417	11	0	31	21	14	12	0	0	0	stim015_stimuli_original_vehicles_planes_3.png	T	0	0	0	252.202888459142	252.402890458412
271.529	0.2	418	11	0	31	22	8	3	0	0	0	stim009_stimuli_original_vehicles_boats_1.png	D	0	0	0	252.60289977194	252.80288641114
271.929	0.2	419	11	0	31	23	13	4	0	1	0	stim014_stimuli_original_vehicles_planes_2.png	E	0	0	0	253.002890604665	253.202911377244
272.329	0.2	420	11	0	31	24	3	5	1	0	0	stim004_stimuli_original_animals_birds_4.png	F	0	0	0	253.402903136506	253.602926590946
272.729	0.2	421	11	0	31	25	15	4	0	1	0	stim016_stimuli_original_vehicles_planes_4.png	E	0	0	0	253.802933710162	254.002931564639
273.129	0.2	422	11	0	31	26	3	0	1	0	1	stim004_stimuli_original_animals_birds_4.png	A	0	0	0	254.202948680089	254.402947022172
273.529	0.2	423	11	0	31	27	5	2	0	0	0	stim006_stimuli_original_animals_fish_2.png	C	0	0	0	254.602953166177	254.802939561603
273.929	0.2	424	11	0	31	28	12	15	0	0	0	stim013_stimuli_original_vehicles_planes_1.png	Y	0	0	0	255.002959358913	255.202965502918
274.329	0.2	425	11	0	31	29	11	4	0	0	0	stim012_stimuli_original_vehicles_boats_4.png	E	0	0	0	255.402970915486	255.602975352842
274.729	0.2	426	11	0	31	30	10	14	0	0	0	stim011_stimuli_original_vehicles_boats_3.png	V	0	0	0	255.802980765409	256.002986177977
275.129	0.2	427	11	0	31	31	6	9	0	0	0	stim007_stimuli_original_animals_fish_3.png	L	0	0	0	256.20299207815	256.403002366947
275.529	0.2	428	11	0	31	32	2	8	0	0	0	stim003_stimuli_original_animals_birds_3.png	K	0	0	0	256.603019726172	256.80301294825
275.929	0.2	429	11	0	31	33	0	6	0	0	0	stim001_stimuli_original_animals_birds_1.png	G	0	0	0	257.003012509376	257.203016702901
276.329	0.2	430	11	0	31	34	4	7	0	0	0	stim005_stimuli_original_animals_fish_1.png	J	0	0	0	257.403026504035	257.603035086126
276.729	0.2	431	11	0	31	35	7	1	0	0	0	stim008_stimuli_original_animals_fish_4.png	B	0	0	0	257.803035134915	258.003057370312
280.646	0.2	432	12	1	9	0	1	0	0	0	0	stim002_stimuli_original_animals_birds_2.png	A	0	0	0	261.719783477718	261.919782307465
281.046	0.2	433	12	1	9	1	5	10	0	0	0	stim006_stimuli_original_animals_fish_2.png	Q	0	0	0	262.119821853354	262.319801665901
281.446	0.2	434	12	1	9	2	3	13	0	0	0	stim004_stimuli_original_animals_birds_4.png	U	0	0	0	262.519827558484	262.719806883426
281.846	0.2	435	12	1	9	3	6	9	0	0	0	stim007_stimuli_original_animals_fish_3.png	L	0	0	0	262.919814490306	263.119817220955
282.246	0.2	436	12	1	9	4	7	8	0	0	0	stim008_stimuli_original_animals_fish_4.png	K	0	0	0	263.319850184023	263.519854377548
282.646	0.2	437	12	1	9	5	15	2	0	1	0	stim016_stimuli_original_vehicles_planes_4.png	C	0	0	0	263.719841748185	263.919860814116
283.046	0.2	438	12	1	9	6	4	5	0	0	0	stim005_stimuli_original_animals_fish_1.png	F	0	0	0	264.119871590461	264.319872858294
283.446	0.2	439	12	1	9	7	3	2	1	1	1	stim004_stimuli_original_animals_birds_4.png	C	0	0	0	264.519866324204	264.719890510081
283.846	0.2	440	12	1	9	8	13	12	0	0	0	stim014_stimuli_original_vehicles_planes_2.png	T	0	0	0	264.919889583602	265.119894508563
284.246	0.2	441	12	1	9	9	3	11	1	0	0	stim004_stimuli_original_animals_birds_4.png	R	0	0	0	265.319906260178	265.519908990827
284.646	0.2	442	12	1	9	10	14	2	0	0	0	stim015_stimuli_original_vehicles_planes_3.png	C	0	0	0	265.71989782434	265.919912501704
285.046	0.2	443	12	1	9	11	10	15	0	0	0	stim011_stimuli_original_vehicles_boats_3.png	Y	NaN	266.112580956949	1	266.119920596189	266.319949170633
285.446	0.2	444	12	1	9	12	11	1	0	0	0	stim012_stimuli_original_vehicles_boats_4.png	B	0	0	0	266.519938491751	266.719935371017
285.846	0.2	445	12	1	9	13	12	14	0	0	0	stim013_stimuli_original_vehicles_planes_1.png	V	0	0	0	266.919940783584	267.119951316155
286.246	0.2	446	12	1	9	14	9	6	0	0	0	stim010_stimuli_original_vehicles_boats_2.png	G	0	0	0	267.319952827762	267.519960434642
286.647	0.2	447	12	1	9	15	2	4	0	0	0	stim003_stimuli_original_animals_birds_3.png	E	0	0	0	267.72039909655	267.919971991214
287.046	0.2	448	12	1	9	16	8	7	0	0	0	stim009_stimuli_original_vehicles_boats_1.png	J	0	0	0	268.119978866598	268.31997818395
287.446	0.2	449	12	1	9	17	0	3	0	0	0	stim001_stimuli_original_animals_birds_1.png	D	0	0	0	268.519987497479	268.719971698651
287.846	0.2	450	12	1	9	18	3	0	0	0	0	stim004_stimuli_original_animals_birds_4.png	A	0	0	0	268.919981743558	269.119997639966
288.246	0.2	451	12	1	9	19	7	8	0	0	0	stim008_stimuli_original_animals_fish_4.png	K	0	0	0	269.320005246787	269.520012366062
288.646	0.2	452	12	1	9	20	4	2	0	0	0	stim005_stimuli_original_animals_fish_1.png	C	0	0	0	269.720017534797	269.920021728321
289.046	0.2	453	12	1	9	21	6	9	0	0	0	stim007_stimuli_original_animals_fish_3.png	L	0	0	0	270.120025678014	270.320033284894
289.446	0.2	454	12	1	9	22	14	12	0	0	0	stim015_stimuli_original_vehicles_planes_3.png	T	0	0	0	270.52004040411	270.720024605282
289.846	0.2	455	12	1	9	23	1	11	0	0	0	stim002_stimuli_original_animals_birds_2.png	R	0	0	0	270.920035625459	271.12005371612
290.246	0.2	456	12	1	9	24	15	10	0	0	0	stim016_stimuli_original_vehicles_planes_4.png	Q	0	0	0	271.320048644906	271.520062346943
290.646	0.2	457	12	1	9	25	2	14	0	0	0	stim003_stimuli_original_animals_birds_3.png	V	0	0	0	271.720086532878	271.920058543561
291.046	0.2	458	12	1	9	26	11	3	0	1	0	stim012_stimuli_original_vehicles_boats_4.png	D	0	0	0	272.12006688182	272.320069856301
291.446	0.2	459	12	1	9	27	12	13	0	0	0	stim013_stimuli_original_vehicles_planes_1.png	U	0	0	0	272.520090628881	272.720097504265
291.846	0.2	460	12	1	9	28	2	3	1	1	1	stim003_stimuli_original_animals_birds_3.png	D	0	0	0	272.920100478746	273.120589365426
292.246	0.2	461	12	1	9	29	5	4	0	0	0	stim006_stimuli_original_animals_fish_2.png	E	0	0	0	273.320115448674	273.520115985069
292.646	0.2	462	12	1	9	30	2	15	1	0	0	stim003_stimuli_original_animals_birds_3.png	Y	NaN	273.712715442234	1	273.720121641411	273.920127541642
293.046	0.2	463	12	1	9	31	8	7	0	0	0	stim009_stimuli_original_vehicles_boats_1.png	J	0	0	0	274.120132710377	274.320161528653
293.446	0.2	464	12	1	9	32	9	6	0	0	0	stim010_stimuli_original_vehicles_boats_2.png	G	0	0	0	274.520152556477	274.720110670023
293.846	0.2	465	12	1	9	33	13	3	0	0	0	stim014_stimuli_original_vehicles_planes_2.png	D	0	0	0	274.92015850544	275.120140512299
294.246	0.2	466	12	1	9	34	10	5	0	0	0	stim011_stimuli_original_vehicles_boats_3.png	F	0	0	0	275.320168842911	275.520170110743
294.646	0.2	467	12	1	9	35	0	1	0	0	0	stim001_stimuli_original_animals_birds_1.png	B	0	0	0	275.720176742354	275.920162406343
301.613	0.2	468	13	0	23	0	7	0	0	0	0	stim008_stimuli_original_animals_fish_4.png	A	0	0	0	282.68703499448	282.887028947996
302.013	0.2	469	13	0	23	1	15	9	0	0	0	stim016_stimuli_original_vehicles_planes_4.png	L	0	0	0	283.087027777743	283.287039529358
302.413	0.2	470	13	0	23	2	13	4	0	0	0	stim014_stimuli_original_vehicles_planes_2.png	E	0	0	0	283.487043722882	283.687045478262
302.813	0.2	471	13	0	23	3	9	12	0	0	0	stim010_stimuli_original_vehicles_boats_2.png	T	0	0	0	283.887053328974	284.087051671057
303.213	0.2	472	13	0	23	4	11	11	0	0	0	stim012_stimuli_original_vehicles_boats_4.png	R	0	0	0	284.287063910277	284.487503547454
303.613	0.2	473	13	0	23	5	12	10	0	0	0	stim013_stimuli_original_vehicles_planes_1.png	Q	0	0	0	284.687082537333	284.887076978455
304.013	0.2	474	13	0	23	6	14	8	0	0	0	stim015_stimuli_original_vehicles_planes_3.png	K	0	0	0	285.087080196769	285.287086340773
304.413	0.2	475	13	0	23	7	2	2	0	0	0	stim003_stimuli_original_animals_birds_3.png	C	0	0	0	285.487099311431	285.687093996385
304.813	0.2	476	13	0	23	8	1	6	0	0	0	stim002_stimuli_original_animals_birds_2.png	G	0	0	0	285.887102822249	286.087105309125
305.213	0.2	477	13	0	23	9	4	14	0	0	0	stim005_stimuli_original_animals_fish_1.png	V	0	0	0	286.287138028361	286.48711808474
305.613	0.2	478	13	0	23	10	7	3	1	1	0	stim008_stimuli_original_animals_fish_4.png	D	0	0	0	286.687128617312	286.887127690832
306.013	0.2	479	13	0	23	11	3	7	0	0	0	stim004_stimuli_original_animals_birds_4.png	J	0	0	0	287.087141880533	287.287136321655
306.413	0.2	480	13	0	23	12	7	3	1	1	1	stim008_stimuli_original_animals_fish_4.png	D	0	0	0	287.487153924711	287.687148122059
306.813	0.2	481	13	0	23	13	5	15	0	0	0	stim006_stimuli_original_animals_fish_2.png	Y	0	0	0	287.887156460318	288.087156509107
307.213	0.2	482	13	0	23	14	10	5	0	0	0	stim011_stimuli_original_vehicles_boats_3.png	F	0	0	0	288.287185814988	288.487173429457
307.613	0.2	483	13	0	23	15	8	1	0	0	0	stim009_stimuli_original_vehicles_boats_1.png	B	0	0	0	288.687183718255	288.887201565085
308.013	0.2	484	13	0	23	16	6	3	0	0	0	stim007_stimuli_original_animals_fish_3.png	D	0	0	0	289.087190642429	289.287190934992
308.413	0.2	485	13	0	23	17	0	13	0	0	0	stim001_stimuli_original_animals_birds_1.png	U	0	0	0	289.487199029478	289.687421432405
308.813	0.2	486	13	0	23	18	13	0	0	0	0	stim014_stimuli_original_vehicles_planes_2.png	A	0	0	0	289.887209854613	290.087212829094
309.213	0.2	487	13	0	23	19	3	6	0	0	0	stim004_stimuli_original_animals_birds_4.png	G	0	0	0	290.287220679747	290.48722950567
309.613	0.2	488	13	0	23	20	1	8	0	0	0	stim002_stimuli_original_animals_birds_2.png	K	0	0	0	290.687232480093	290.887234723195
310.013	0.2	489	13	0	23	21	5	10	0	0	0	stim006_stimuli_original_animals_fish_2.png	Q	0	0	0	291.087240623368	291.287246035936
310.413	0.2	490	13	0	23	22	15	5	0	0	0	stim016_stimuli_original_vehicles_planes_4.png	F	0	0	0	291.487252667546	291.687256373465
310.813	0.2	491	13	0	23	23	3	7	1	1	0	stim004_stimuli_original_animals_birds_4.png	J	0	0	0	291.887265930767	292.087265735725
311.213	0.2	492	13	0	23	24	7	3	0	0	0	stim008_stimuli_original_animals_fish_4.png	D	0	0	0	292.28727187973	292.487277779903
311.613	0.2	493	13	0	23	25	3	7	1	1	1	stim004_stimuli_original_animals_birds_4.png	J	0	0	0	292.687282704865	292.887294456479
312.013	0.2	494	13	0	23	26	14	4	0	0	0	stim015_stimuli_original_vehicles_planes_3.png	E	NaN	293.279062816058	1	293.087293773831	293.287296016875
312.413	0.2	495	13	0	23	27	6	1	0	0	0	stim007_stimuli_original_animals_fish_3.png	B	0	0	0	293.487306549447	293.687310499139
312.813	0.2	496	13	0	23	28	2	2	0	0	0	stim003_stimuli_original_animals_birds_3.png	C	0	0	0	293.887322006922	294.087322543317
313.213	0.2	497	13	0	23	29	8	14	0	0	0	stim009_stimuli_original_vehicles_boats_1.png	V	0	0	0	294.28732576163	294.487337269413
313.613	0.2	498	13	0	23	30	10	12	0	0	0	stim011_stimuli_original_vehicles_boats_3.png	T	0	0	0	294.687338293414	294.887341511727
314.013	0.2	499	13	0	23	31	11	11	0	0	0	stim012_stimuli_original_vehicles_boats_4.png	R	0	0	0	295.087350825197	295.287349654944
314.413	0.2	500	13	0	23	32	12	9	0	0	0	stim013_stimuli_original_vehicles_planes_1.png	L	0	0	0	295.487357017992	295.68736438104
314.813	0.2	501	13	0	23	33	4	13	0	0	0	stim005_stimuli_original_animals_fish_1.png	U	0	0	0	295.887367355521	296.087376912823
315.213	0.2	502	13	0	23	34	9	15	0	0	0	stim010_stimuli_original_vehicles_boats_2.png	Y	0	0	0	296.287378912093	296.487384080829
315.613	0.2	503	13	0	23	35	0	7	0	0	0	stim001_stimuli_original_animals_birds_1.png	J	0	0	0	296.687392419088	296.887395149795
318.414	0.2	504	14	1	6	0	1	6	0	0	0	stim002_stimuli_original_animals_birds_2.png	G	0	0	0	299.487491600798	299.687465561961
318.813	0.2	505	14	1	6	1	7	2	0	0	0	stim008_stimuli_original_animals_fish_4.png	C	0	0	0	299.88748243358	300.087486627046
319.214	0.2	506	14	1	6	2	8	13	0	0	0	stim009_stimuli_original_vehicles_boats_1.png	U	0	0	0	300.287483018707	300.48749647697
319.614	0.2	507	14	1	6	3	4	8	0	0	0	stim005_stimuli_original_animals_fish_1.png	K	0	0	0	300.687504815287	300.887524612597
320.014	0.2	508	14	1	6	4	3	14	0	0	0	stim004_stimuli_original_animals_birds_4.png	V	0	0	0	301.087513689941	301.287516420591
320.414	0.2	509	14	1	6	5	13	11	0	0	0	stim014_stimuli_original_vehicles_planes_2.png	R	NaN	301.480106125411	0	301.48752963508	301.687537241902
320.814	0.2	510	14	1	6	6	5	15	0	0	0	stim006_stimuli_original_animals_fish_2.png	Y	0	0	0	301.887539728777	302.087801385031
321.214	0.2	511	14	1	6	7	9	4	0	1	0	stim010_stimuli_original_vehicles_boats_2.png	E	0	0	0	302.287548115826	302.487546701741
321.614	0.2	512	14	1	6	8	6	3	0	0	0	stim007_stimuli_original_animals_fish_3.png	D	0	0	0	302.687561866653	302.887554601126
322.014	0.2	513	14	1	6	9	11	4	0	1	1	stim012_stimuli_original_vehicles_boats_4.png	E	0	0	0	303.087558307045	303.287564207218
322.414	0.2	514	14	1	6	10	9	5	1	0	0	stim010_stimuli_original_vehicles_boats_2.png	F	0	0	0	303.487568644574	303.687573569536
322.814	0.2	515	14	1	6	11	12	10	0	0	0	stim013_stimuli_original_vehicles_planes_1.png	Q	0	0	0	303.887585808756	304.087581468921
323.214	0.2	516	14	1	6	12	9	0	1	0	0	stim010_stimuli_original_vehicles_boats_2.png	A	0	0	0	304.287589563406	304.487596438848
323.614	0.2	517	14	1	6	13	0	9	0	0	0	stim001_stimuli_original_animals_birds_1.png	L	0	0	0	304.687605264771	304.887605313503
324.014	0.2	518	14	1	6	14	2	1	0	0	0	stim003_stimuli_original_animals_birds_3.png	B	0	0	0	305.087613895594	305.28761272534
324.414	0.2	519	14	1	6	15	15	12	0	0	0	stim016_stimuli_original_vehicles_planes_4.png	T	0	0	0	305.487615212158	305.687626719999
324.814	0.2	520	14	1	6	16	10	7	0	0	0	stim011_stimuli_original_vehicles_boats_3.png	J	0	0	0	305.887636277301	306.087622916559
325.214	0.2	521	14	1	6	17	14	4	0	0	0	stim015_stimuli_original_vehicles_planes_3.png	E	0	0	0	306.28764466435	306.487644469307
325.614	0.2	522	14	1	6	18	4	14	0	0	0	stim005_stimuli_original_animals_fish_1.png	V	0	0	0	306.687654514273	306.8876626087
326.014	0.2	523	14	1	6	19	7	10	0	0	0	stim008_stimuli_original_animals_fish_4.png	Q	0	0	0	307.087664851744	307.287668801495
326.414	0.2	524	14	1	6	20	12	15	0	0	0	stim013_stimuli_original_vehicles_planes_1.png	Y	0	0	0	307.487681040715	307.687684259028
326.814	0.2	525	14	1	6	21	1	2	0	0	0	stim002_stimuli_original_animals_birds_2.png	C	NaN	308.079454569088	0	307.887688208721	308.087691426976
327.214	0.2	526	14	1	6	22	9	0	0	0	0	stim010_stimuli_original_vehicles_boats_2.png	A	0	0	0	308.287699033855	308.487702008337
327.614	0.2	527	14	1	6	23	0	9	0	1	0	stim001_stimuli_original_animals_birds_1.png	L	0	0	0	308.687706201861	308.88771454012
328.014	0.2	528	14	1	6	24	10	12	0	0	0	stim011_stimuli_original_vehicles_boats_3.png	T	0	0	0	309.087718733645	309.287723658606
328.414	0.2	529	14	1	6	25	5	9	0	1	1	stim006_stimuli_original_animals_fish_2.png	L	0	0	0	309.487728827342	309.687734727573
328.814	0.2	530	14	1	6	26	4	11	1	0	0	stim005_stimuli_original_animals_fish_1.png	R	0	0	0	309.887762326805	310.087747015525
329.214	0.2	531	14	1	6	27	3	6	0	0	0	stim004_stimuli_original_animals_birds_4.png	G	0	0	0	310.287748039525	310.487755402573
329.614	0.2	532	14	1	6	28	4	9	1	0	0	stim005_stimuli_original_animals_fish_1.png	L	0	0	0	310.6877693485	310.887754037278
330.014	0.2	533	14	1	6	29	15	5	0	0	0	stim016_stimuli_original_vehicles_planes_4.png	F	NaN	311.279551653948	1	311.087784074596	311.287805822387
330.414	0.2	534	14	1	6	30	11	13	0	0	0	stim012_stimuli_original_vehicles_boats_4.png	U	0	0	0	311.487791730207	311.687791535165
330.814	0.2	535	14	1	6	31	14	3	0	0	0	stim015_stimuli_original_vehicles_planes_3.png	D	0	0	0	311.887801336299	312.087806992698
331.214	0.2	536	14	1	6	32	8	4	0	0	0	stim009_stimuli_original_vehicles_boats_1.png	E	0	0	0	312.287795826211	312.487817330169
331.614	0.2	537	14	1	6	33	13	8	0	0	0	stim014_stimuli_original_vehicles_planes_2.png	K	0	0	0	312.687993897009	312.887830837222
332.014	0.2	538	14	1	6	34	2	7	0	0	0	stim003_stimuli_original_animals_birds_3.png	J	0	0	0	313.087826253613	313.28783069097
332.414	0.2	539	14	1	6	35	6	1	0	0	0	stim007_stimuli_original_animals_fish_3.png	B	0	0	0	313.487833177787	313.687835420831
342.581	0.2	540	15	0	10	0	15	14	0	0	0	stim016_stimuli_original_vehicles_planes_4.png	V	0	0	0	323.654769253917	323.854754674074
342.981	0.2	541	15	0	10	1	2	9	0	0	0	stim003_stimuli_original_animals_birds_3.png	L	0	0	0	324.054759355262	324.25478939258
343.381	0.2	542	15	0	10	2	3	1	0	0	0	stim004_stimuli_original_animals_birds_4.png	B	0	0	0	324.454794317484	324.654797779629
343.781	0.2	543	15	0	10	3	0	3	0	0	0	stim001_stimuli_original_animals_birds_1.png	D	0	0	0	324.854807824537	325.054827865679
344.181	0.2	544	15	0	10	4	4	6	0	0	0	stim005_stimuli_original_animals_fish_1.png	G	0	0	0	325.254825720156	325.454817235586
344.581	0.2	545	15	0	10	5	14	5	1	0	0	stim015_stimuli_original_vehicles_planes_3.png	F	0	0	0	325.654802899575	325.854798315966
344.981	0.2	546	15	0	10	6	6	10	0	1	0	stim007_stimuli_original_animals_fish_3.png	Q	0	0	0	326.054842738085	326.25481474871
345.381	0.2	547	15	0	10	7	14	4	1	0	1	stim015_stimuli_original_vehicles_planes_3.png	E	0	0	0	326.454846492736	326.654903105285
345.781	0.2	548	15	0	10	8	5	10	0	1	0	stim006_stimuli_original_animals_fish_2.png	Q	0	0	0	326.854846346425	327.054859073309
346.181	0.2	549	15	0	10	9	12	8	0	0	0	stim013_stimuli_original_vehicles_planes_1.png	K	0	0	0	327.255236051453	327.454875749885
346.581	0.2	550	15	0	10	10	1	11	0	0	0	stim002_stimuli_original_animals_birds_2.png	R	0	0	0	327.654862632917	327.854883893102
346.981	0.2	551	15	0	10	11	13	12	0	0	0	stim014_stimuli_original_vehicles_planes_2.png	T	0	0	0	328.054893450404	328.254893255362
347.381	0.2	552	15	0	10	12	14	10	0	0	0	stim015_stimuli_original_vehicles_planes_3.png	Q	0	0	0	328.454898911761	328.654884819582
347.781	0.2	553	15	0	10	13	9	7	0	0	0	stim010_stimuli_original_vehicles_boats_2.png	J	0	0	0	328.854913881631	329.054914661858
348.181	0.2	554	15	0	10	14	7	13	0	0	0	stim008_stimuli_original_animals_fish_4.png	U	0	0	0	329.254925194429	329.45492621843
348.581	0.2	555	15	0	10	15	11	15	0	0	0	stim012_stimuli_original_vehicles_boats_4.png	Y	0	0	0	329.654952354787	329.854965081613
348.981	0.2	556	15	0	10	16	10	2	0	0	0	stim011_stimuli_original_vehicles_boats_3.png	C	0	0	0	330.054951720871	330.254950550618
349.381	0.2	557	15	0	10	17	8	0	0	0	0	stim009_stimuli_original_vehicles_boats_1.png	A	0	0	0	330.454957913666	330.65495723096
349.781	0.2	558	15	0	10	18	0	8	0	0	0	stim001_stimuli_original_animals_birds_1.png	K	0	0	0	330.854962887359	331.054964642797
350.181	0.2	559	15	0	10	19	2	10	0	0	0	stim003_stimuli_original_animals_birds_3.png	Q	0	0	0	331.254976882017	331.454974736494
350.581	0.2	560	15	0	10	20	15	11	0	0	0	stim016_stimuli_original_vehicles_planes_4.png	R	0	0	0	331.654984050023	331.854982635938
350.981	0.2	561	15	0	10	21	13	7	0	0	0	stim014_stimuli_original_vehicles_planes_2.png	J	0	0	0	332.054995850369	332.254997605807
351.381	0.2	562	15	0	10	22	7	9	0	0	0	stim008_stimuli_original_animals_fish_4.png	L	0	0	0	332.455238782102	332.655009649985
351.781	0.2	563	15	0	10	23	10	14	0	0	0	stim011_stimuli_original_vehicles_boats_3.png	V	0	0	0	332.855012868298	333.055019499909
352.181	0.2	564	15	0	10	24	12	13	0	0	0	stim013_stimuli_original_vehicles_planes_1.png	U	0	0	0	333.25502442487	333.455025448871
352.581	0.2	565	15	0	10	25	11	1	0	0	0	stim012_stimuli_original_vehicles_boats_4.png	B	0	0	0	333.655035981443	333.855036761612
352.981	0.2	566	15	0	10	26	8	12	0	0	0	stim009_stimuli_original_vehicles_boats_1.png	T	0	0	0	334.055044856097	334.255051000102
353.381	0.2	567	15	0	10	27	10	5	1	0	0	stim011_stimuli_original_vehicles_boats_3.png	F	0	0	0	334.455061532673	334.655062312842
353.781	0.2	568	15	0	10	28	4	14	0	1	0	stim005_stimuli_original_animals_fish_1.png	V	0	0	0	334.855053584441	335.055075819895
354.181	0.2	569	15	0	10	29	10	6	1	0	1	stim011_stimuli_original_vehicles_boats_3.png	G	0	0	0	335.255080988631	335.455065433576
354.581	0.2	570	15	0	10	30	5	14	0	1	0	stim006_stimuli_original_animals_fish_2.png	V	0	0	0	335.655092057597	335.855078453023
354.981	0.2	571	15	0	10	31	6	4	0	0	0	stim007_stimuli_original_animals_fish_3.png	E	0	0	0	336.055101907463	336.255105369608
355.381	0.2	572	15	0	10	32	3	0	0	0	0	stim004_stimuli_original_animals_birds_4.png	A	0	0	0	336.455128824047	336.655115219473
355.781	0.2	573	15	0	10	33	1	3	0	0	0	stim002_stimuli_original_animals_birds_2.png	D	0	0	0	336.855123313959	337.055127263651
356.181	0.2	574	15	0	10	34	9	2	0	0	0	stim010_stimuli_original_vehicles_boats_2.png	C	0	0	0	337.255132676219	337.455138088786
356.581	0.2	575	15	0	10	35	14	15	0	0	0	stim015_stimuli_original_vehicles_planes_3.png	Y	0	0	0	337.65514325758	337.855493172887
360.314	0.2	576	16	1	45	0	4	2	0	0	0	stim005_stimuli_original_animals_fish_1.png	C	0	0	0	341.388571286516	341.588574504771
360.714	0.2	577	16	1	45	1	10	10	0	0	0	stim011_stimuli_original_vehicles_boats_3.png	Q	0	0	0	341.788583330694	341.988591425121
361.114	0.2	578	16	1	45	2	7	4	0	0	0	stim008_stimuli_original_animals_fish_4.png	E	0	0	0	342.188577089168	342.38859981217
361.514	0.2	579	16	1	45	3	14	5	0	0	0	stim015_stimuli_original_vehicles_planes_3.png	F	0	0	0	342.588602786651	342.788606736402
361.914	0.2	580	16	1	45	4	0	9	0	0	0	stim001_stimuli_original_animals_birds_1.png	L	0	0	0	342.988615318493	343.18862268154
362.315	0.2	581	16	1	45	5	3	15	0	0	0	stim004_stimuli_original_animals_birds_4.png	Y	0	0	0	343.388624924584	343.588627167628
362.715	0.2	582	16	1	45	6	13	3	1	0	0	stim014_stimuli_original_vehicles_planes_2.png	D	0	0	0	343.788635749719	343.988640674681
363.115	0.2	583	16	1	45	7	8	13	0	0	0	stim009_stimuli_original_vehicles_boats_1.png	U	0	0	0	344.188645843416	344.388650768378
363.515	0.2	584	16	1	45	8	13	11	1	0	0	stim014_stimuli_original_vehicles_planes_2.png	R	0	0	0	344.588655937114	344.788668420166
363.915	0.2	585	16	1	45	9	1	7	0	0	0	stim002_stimuli_original_animals_birds_2.png	J	NaN	344.981259100197	0	344.988670419378	345.18867168721
364.315	0.2	586	16	1	45	10	11	12	0	0	0	stim012_stimuli_original_vehicles_boats_4.png	T	0	0	0	345.388675880735	345.588680805697
364.715	0.2	587	16	1	45	11	9	15	0	1	0	stim010_stimuli_original_vehicles_boats_2.png	Y	0	0	0	345.788693044917	345.989090015413
365.115	0.2	588	16	1	45	12	13	6	0	0	0	stim014_stimuli_original_vehicles_planes_2.png	G	0	0	0	346.188703626278	346.388701480697
365.515	0.2	589	16	1	45	13	6	15	0	1	1	stim007_stimuli_original_animals_fish_3.png	Y	0	0	0	346.588712500932	346.788716450625
365.915	0.2	590	16	1	45	14	12	8	0	0	0	stim013_stimuli_original_vehicles_planes_1.png	K	0	0	0	346.988727470802	347.188725812885
366.315	0.2	591	16	1	45	15	2	14	0	0	0	stim003_stimuli_original_animals_birds_3.png	V	0	0	0	347.388732932159	347.588734443765
366.715	0.2	592	16	1	45	16	15	1	0	0	0	stim016_stimuli_original_vehicles_planes_4.png	B	0	0	0	347.788742050587	347.988748682255
367.115	0.2	593	16	1	45	17	5	0	0	0	0	stim006_stimuli_original_animals_fish_2.png	A	0	0	0	348.18876043387	348.388756094035
367.515	0.2	594	16	1	45	18	0	5	0	0	0	stim001_stimuli_original_animals_birds_1.png	F	0	0	0	348.588781255181	348.788766431564
367.915	0.2	595	16	1	45	19	1	15	0	0	0	stim002_stimuli_original_animals_birds_2.png	Y	0	0	0	348.988774526049	349.188776037656
368.315	0.2	596	16	1	45	20	14	2	0	0	0	stim015_stimuli_original_vehicles_planes_3.png	C	0	0	0	349.388786326395	349.588790763752
368.715	0.2	597	16	1	45	21	8	12	0	0	0	stim009_stimuli_original_vehicles_boats_1.png	T	0	0	0	349.788797882968	349.988816217461
369.115	0.2	598	16	1	45	22	15	6	1	0	0	stim016_stimuli_original_vehicles_planes_4.png	G	0	0	0	350.188811877626	350.388807537849
369.515	0.2	599	16	1	45	23	6	13	0	0	0	stim007_stimuli_original_animals_fish_3.png	U	0	0	0	350.588815876108	350.788822995324
369.915	0.2	600	16	1	45	24	15	9	1	0	0	stim016_stimuli_original_vehicles_planes_4.png	L	0	0	0	350.988828651723	351.188832357642
370.315	0.2	601	16	1	45	25	12	11	0	0	0	stim013_stimuli_original_vehicles_planes_1.png	R	0	0	0	351.388840695901	351.58883879421
370.715	0.2	602	16	1	45	26	7	1	0	0	0	stim008_stimuli_original_animals_fish_4.png	B	0	0	0	351.788848839176	351.988857177435
371.115	0.2	603	16	1	45	27	11	13	0	1	0	stim012_stimuli_original_vehicles_boats_4.png	U	0	0	0	352.188859420479	352.388862882566
371.515	0.2	604	16	1	45	28	13	8	0	0	0	stim014_stimuli_original_vehicles_planes_2.png	K	0	0	0	352.58887365897	352.78887175722
371.915	0.2	605	16	1	45	29	3	13	0	1	1	stim004_stimuli_original_animals_birds_4.png	U	0	0	0	352.988885946921	353.188885751879
372.315	0.2	606	16	1	45	30	15	3	0	0	0	stim016_stimuli_original_vehicles_planes_4.png	D	0	0	0	353.388892627321	353.58889072563
372.715	0.2	607	16	1	45	31	9	0	0	0	0	stim010_stimuli_original_vehicles_boats_2.png	A	0	0	0	353.788940999133	353.988912278379
373.115	0.2	608	16	1	45	32	5	14	0	0	0	stim006_stimuli_original_animals_fish_2.png	V	0	0	0	354.188919397595	354.388933587295
373.515	0.2	609	16	1	45	33	4	7	0	0	0	stim005_stimuli_original_animals_fish_1.png	J	0	0	0	354.588932904648	354.788933684817
373.915	0.2	610	16	1	45	34	10	10	0	0	0	stim011_stimuli_original_vehicles_boats_3.png	Q	0	0	0	354.988942510739	355.188964989968
374.315	0.2	611	16	1	45	35	2	4	0	0	0	stim003_stimuli_original_animals_birds_3.png	E	0	0	0	355.388955530128	355.588955335086
377.048	0.2	612	17	0	20	0	9	1	0	0	0	stim010_stimuli_original_vehicles_boats_2.png	B	0	0	0	358.122336260043	358.32236044592
377.448	0.2	613	17	0	20	1	5	7	0	0	0	stim006_stimuli_original_animals_fish_2.png	J	0	0	0	358.522367808968	358.722369320632
377.848	0.2	614	17	0	20	2	1	0	0	0	0	stim002_stimuli_original_animals_birds_2.png	A	0	0	0	358.922374245536	359.122383315291
378.248	0.2	615	17	0	20	3	0	9	0	0	0	stim001_stimuli_original_animals_birds_1.png	L	0	0	0	359.322383364022	359.522385363292
378.648	0.2	616	17	0	20	4	2	2	0	0	0	stim003_stimuli_original_animals_birds_3.png	C	0	0	0	359.722385655856	359.922392043634
379.048	0.2	617	17	0	20	5	13	4	0	0	0	stim014_stimuli_original_vehicles_planes_2.png	E	0	0	0	360.122396480991	360.322397748765
379.448	0.2	618	17	0	20	6	6	6	0	0	0	stim007_stimuli_original_animals_fish_3.png	G	0	0	0	360.522405111813	360.722411012044
379.848	0.2	619	17	0	20	7	12	5	0	0	0	stim013_stimuli_original_vehicles_planes_1.png	F	0	0	0	360.922428371268	361.122422324785
380.248	0.2	620	17	0	20	8	15	13	0	1	0	stim016_stimuli_original_vehicles_planes_4.png	U	0	0	0	361.322437245923	361.522438269923
380.648	0.2	621	17	0	20	9	14	11	0	0	0	stim015_stimuli_original_vehicles_planes_3.png	R	0	0	0	361.722430029127	361.922455190273
381.048	0.2	622	17	0	20	10	12	13	1	1	0	stim013_stimuli_original_vehicles_planes_1.png	U	0	0	0	362.122460359067	362.322475767811
381.448	0.2	623	17	0	20	11	3	8	0	0	0	stim004_stimuli_original_animals_birds_4.png	K	0	0	0	362.522470452765	362.722482691985
381.848	0.2	624	17	0	20	12	12	15	1	0	1	stim013_stimuli_original_vehicles_planes_1.png	Y	0	0	0	362.922478352208	363.122484496154
382.248	0.2	625	17	0	20	13	10	14	0	0	0	stim011_stimuli_original_vehicles_boats_3.png	V	0	0	0	363.322489664948	363.522477523249
382.649	0.2	626	17	0	20	14	8	3	0	0	0	stim009_stimuli_original_vehicles_boats_1.png	D	0	0	0	363.722709434747	363.922510535049
383.048	0.2	627	17	0	20	15	4	13	0	0	0	stim005_stimuli_original_animals_fish_1.png	U	0	0	0	364.122513997136	364.322514533531
383.448	0.2	628	17	0	20	16	7	10	0	0	0	stim008_stimuli_original_animals_fish_4.png	Q	0	0	0	364.522521408915	364.722527065314
383.848	0.2	629	17	0	20	17	11	12	0	0	0	stim012_stimuli_original_vehicles_boats_4.png	T	0	0	0	364.922533453093	365.122540084703
384.248	0.2	630	17	0	20	18	12	11	0	0	0	stim013_stimuli_original_vehicles_planes_1.png	R	0	0	0	365.322542815411	365.52254920319
384.648	0.2	631	17	0	20	19	10	7	0	0	0	stim011_stimuli_original_vehicles_boats_3.png	J	0	0	0	365.722537549096	365.922557102633
385.048	0.2	632	17	0	20	20	13	4	0	0	0	stim014_stimuli_original_vehicles_planes_2.png	E	0	0	0	366.12256812281	366.32256524585
385.448	0.2	633	17	0	20	21	3	8	0	0	0	stim004_stimuli_original_animals_birds_4.png	K	0	0	0	366.522575534647	366.722563880554
385.848	0.2	634	17	0	20	22	14	10	0	0	0	stim015_stimuli_original_vehicles_planes_3.png	Q	0	0	0	366.922588797868	367.122590309475
386.248	0.2	635	17	0	20	23	15	12	0	1	0	stim016_stimuli_original_vehicles_planes_4.png	T	0	0	0	367.322587432514	367.52259747748
386.648	0.2	636	17	0	20	24	8	3	0	0	0	stim009_stimuli_original_vehicles_boats_1.png	D	0	0	0	367.72260776622	367.922610009264
387.048	0.2	637	17	0	20	25	13	12	1	1	0	stim014_stimuli_original_vehicles_planes_2.png	T	0	0	0	368.122618103749	368.322604499175
387.448	0.2	638	17	0	20	26	11	14	0	0	0	stim012_stimuli_original_vehicles_boats_4.png	V	0	0	0	368.522631854576	368.722632634803
387.848	0.2	639	17	0	20	27	13	15	1	0	1	stim014_stimuli_original_vehicles_planes_2.png	Y	0	0	0	368.922640485456	369.123036968347
388.248	0.2	640	17	0	20	28	5	12	0	0	0	stim006_stimuli_original_animals_fish_2.png	T	0	0	0	369.322651066759	369.522651359381
388.648	0.2	641	17	0	20	29	6	6	0	0	0	stim007_stimuli_original_animals_fish_3.png	G	0	0	0	369.722643118585	369.922665354039
389.048	0.2	642	17	0	20	30	4	13	0	0	0	stim005_stimuli_original_animals_fish_1.png	U	0	0	0	370.122672229423	370.322631805844
389.448	0.2	643	17	0	20	31	2	2	0	0	0	stim003_stimuli_original_animals_birds_3.png	C	0	0	0	370.522679397429	370.722683103348
389.848	0.2	644	17	0	20	32	9	0	0	0	0	stim010_stimuli_original_vehicles_boats_2.png	A	0	0	0	370.922693635919	371.122713189456
390.248	0.2	645	17	0	20	33	0	1	0	0	0	stim001_stimuli_original_animals_birds_1.png	B	0	0	0	371.322686662956	371.522690125043
390.648	0.2	646	17	0	20	34	7	5	0	0	0	stim008_stimuli_original_animals_fish_4.png	F	0	0	0	371.722712848103	371.922718504502
391.048	0.2	647	17	0	20	35	1	9	0	0	0	stim002_stimuli_original_animals_birds_2.png	L	0	0	0	372.122723185632	372.322723478195
394.765	0.2	648	18	1	26	0	0	5	0	0	0	stim001_stimuli_original_animals_birds_1.png	F	0	0	0	375.839488790138	376.039498835104
395.165	0.2	649	18	1	26	1	9	0	0	0	0	stim010_stimuli_original_vehicles_boats_2.png	A	0	0	0	376.239476697228	376.439501126937
395.565	0.2	650	18	1	26	2	8	12	0	0	0	stim009_stimuli_original_vehicles_boats_1.png	T	0	0	0	376.639516291849	376.839486352052
395.965	0.2	651	18	1	26	3	4	10	0	0	0	stim005_stimuli_original_animals_fish_1.png	Q	0	0	0	377.039520046499	377.239912628487
396.365	0.2	652	18	1	26	4	2	6	0	0	0	stim003_stimuli_original_animals_birds_3.png	G	0	0	0	377.439532334509	377.639536284201
396.765	0.2	653	18	1	26	5	11	13	1	0	0	stim012_stimuli_original_vehicles_boats_4.png	U	0	0	0	377.839543891081	378.039535650343
397.165	0.2	654	18	1	26	6	13	7	0	1	0	stim014_stimuli_original_vehicles_planes_2.png	J	0	0	0	378.239550327649	378.439537454513
397.565	0.2	655	18	1	26	7	11	14	1	0	0	stim012_stimuli_original_vehicles_boats_4.png	V	0	0	0	378.639562371827	378.839569491101
397.965	0.2	656	18	1	26	8	1	7	0	1	1	stim002_stimuli_original_animals_birds_2.png	J	0	0	0	379.039572953188	379.239575440006
398.365	0.2	657	18	1	26	9	12	2	0	0	0	stim013_stimuli_original_vehicles_planes_1.png	C	0	0	0	379.439584022097	379.639585777535
398.765	0.2	658	18	1	26	10	7	1	0	0	0	stim008_stimuli_original_animals_fish_4.png	B	0	0	0	379.839613620599	380.039600503631
399.165	0.2	659	18	1	26	11	6	7	0	0	0	stim007_stimuli_original_animals_fish_3.png	J	0	0	0	380.239604697155	380.439608403074
399.565	0.2	660	18	1	26	12	11	8	0	0	0	stim012_stimuli_original_vehicles_boats_4.png	K	0	0	0	380.639599674672	380.839622153901
399.965	0.2	661	18	1	26	13	3	15	0	0	0	stim004_stimuli_original_animals_birds_4.png	Y	0	0	0	381.039633174078	381.239630784781
400.365	0.2	662	18	1	26	14	10	3	0	0	0	stim011_stimuli_original_vehicles_boats_3.png	D	0	0	0	381.439642292564	381.639642341353
400.765	0.2	663	18	1	26	15	15	9	0	0	0	stim016_stimuli_original_vehicles_planes_4.png	L	0	0	0	381.839647753921	382.039651947445
401.165	0.2	664	18	1	26	16	14	4	0	0	0	stim015_stimuli_original_vehicles_planes_3.png	E	0	0	0	382.23966369906	382.439661065873
401.565	0.2	665	18	1	26	17	5	11	0	0	0	stim006_stimuli_original_animals_fish_2.png	R	0	0	0	382.639675499406	382.839677011012
401.965	0.2	666	18	1	26	18	11	5	0	0	0	stim012_stimuli_original_vehicles_boats_4.png	F	0	0	0	383.039682911243	383.239683203807
402.365	0.2	667	18	1	26	19	4	14	0	0	0	stim005_stimuli_original_animals_fish_1.png	V	0	0	0	383.439689347812	383.639692566067
402.765	0.2	668	18	1	26	20	9	15	0	0	0	stim010_stimuli_original_vehicles_boats_2.png	Y	0	0	0	383.83969285863	384.039704610244
403.165	0.2	669	18	1	26	21	3	10	0	0	0	stim004_stimuli_original_animals_birds_4.png	Q	0	0	0	384.239714899042	384.439713728731
403.565	0.2	670	18	1	26	22	15	3	0	0	0	stim016_stimuli_original_vehicles_planes_4.png	D	0	0	0	384.639705731766	384.839726504346
403.965	0.2	671	18	1	26	23	8	11	0	0	0	stim009_stimuli_original_vehicles_boats_1.png	R	0	0	0	385.039734842605	385.23973635427
404.365	0.2	672	18	1	26	24	7	6	0	0	0	stim008_stimuli_original_animals_fish_4.png	G	0	0	0	385.439725187782	385.639746204135
404.765	0.2	673	18	1	26	25	1	7	0	0	0	stim002_stimuli_original_animals_birds_2.png	J	0	0	0	385.839756736706	386.039755566453
405.165	0.2	674	18	1	26	26	2	12	0	0	0	stim003_stimuli_original_animals_birds_3.png	T	0	0	0	386.239766342798	386.439777362975
405.566	0.2	675	18	1	26	27	7	1	1	0	0	stim008_stimuli_original_animals_fish_4.png	B	0	0	0	386.639774973679	386.83978063002
405.966	0.2	676	18	1	26	28	14	11	0	1	0	stim015_stimuli_original_vehicles_planes_3.png	R	0	0	0	387.039786530251	387.239773900888
406.366	0.2	677	18	1	26	29	7	13	1	0	0	stim008_stimuli_original_animals_fish_4.png	U	0	0	0	387.439798818203	387.6397815565
406.766	0.2	678	18	1	26	30	13	11	0	1	1	stim014_stimuli_original_vehicles_planes_2.png	R	NaN	388.046249186911	1	387.84021778038	388.039813836862
407.166	0.2	679	18	1	26	31	6	2	0	0	0	stim007_stimuli_original_animals_fish_3.png	C	0	0	0	388.239817542781	388.439803694433
407.566	0.2	680	18	1	26	32	10	4	0	0	0	stim011_stimuli_original_vehicles_boats_3.png	E	0	0	0	388.639809838438	388.839831586229
407.966	0.2	681	18	1	26	33	12	8	0	0	0	stim013_stimuli_original_vehicles_planes_1.png	K	0	0	0	389.039839436882	389.239839729446
408.366	0.2	682	18	1	26	34	0	9	0	0	0	stim001_stimuli_original_animals_birds_1.png	L	0	0	0	389.439850505849	389.639856649854
408.766	0.2	683	18	1	26	35	5	0	0	0	0	stim006_stimuli_original_animals_fish_2.png	A	0	0	0	389.839851578581	390.039856259711
416.599	0.2	684	19	0	13	0	11	1	0	0	0	stim012_stimuli_original_vehicles_boats_4.png	B	0	0	0	397.673398245184	397.873399025353
416.999	0.2	685	19	0	13	1	0	10	0	0	0	stim001_stimuli_original_animals_birds_1.png	Q	0	0	0	398.073406632233	398.273409850488
417.399	0.2	686	19	0	13	2	4	15	0	0	0	stim005_stimuli_original_animals_fish_1.png	Y	0	0	0	398.473418188805	398.673420675623
417.799	0.2	687	19	0	13	3	5	2	0	0	0	stim006_stimuli_original_animals_fish_2.png	C	0	0	0	398.873444617726	399.073441009328
418.199	0.2	688	19	0	13	4	8	6	0	0	0	stim009_stimuli_original_vehicles_boats_1.png	G	0	0	0	399.273431061942	399.47345061542
418.599	0.2	689	19	0	13	5	12	0	0	0	0	stim013_stimuli_original_vehicles_planes_1.png	A	0	0	0	399.673457978468	399.873444617726
419	0.2	690	19	0	13	6	6	7	0	0	0	stim007_stimuli_original_animals_fish_3.png	J	0	0	0	400.073935942492	400.27347714192
419.399	0.2	691	19	0	13	7	7	3	0	0	0	stim008_stimuli_original_animals_fish_4.png	D	0	0	0	400.473479141132	400.673481140402
419.799	0.2	692	19	0	13	8	10	11	0	0	0	stim011_stimuli_original_vehicles_boats_3.png	R	0	0	0	400.873493379622	401.073493916017
420.199	0.2	693	19	0	13	9	15	12	0	0	0	stim016_stimuli_original_vehicles_planes_4.png	T	0	0	0	401.273491526663	401.473504253547
420.599	0.2	694	19	0	13	10	11	7	1	1	0	stim012_stimuli_original_vehicles_boats_4.png	J	0	0	0	401.673511372763	401.873513371975
420.999	0.2	695	19	0	13	11	9	13	0	0	0	stim010_stimuli_original_vehicles_boats_2.png	U	0	0	0	402.073522197898	402.273527122859
421.399	0.2	696	19	0	13	12	11	7	1	1	1	stim012_stimuli_original_vehicles_boats_4.png	J	0	0	0	402.473534729681	402.673552332737
421.799	0.2	697	19	0	13	13	14	14	0	0	0	stim015_stimuli_original_vehicles_planes_3.png	V	0	0	0	402.873543360562	403.073515615019
422.199	0.2	698	19	0	13	14	3	5	0	0	0	stim004_stimuli_original_animals_birds_4.png	F	0	0	0	403.273551260005	403.473556184908
422.599	0.2	699	19	0	13	15	13	8	0	0	0	stim014_stimuli_original_vehicles_planes_2.png	K	0	0	0	403.673565498437	403.873550187214
422.999	0.2	700	19	0	13	16	1	9	0	0	0	stim002_stimuli_original_animals_birds_2.png	L	0	0	0	404.073593390232	404.273582223803
423.399	0.2	701	19	0	13	17	2	4	0	0	0	stim003_stimuli_original_animals_birds_3.png	E	0	0	0	404.473581297323	404.673592561274
423.799	0.2	702	19	0	13	18	4	2	0	0	0	stim005_stimuli_original_animals_fish_1.png	C	0	0	0	404.873578956758	405.073596315982
424.199	0.2	703	19	0	13	19	9	1	0	0	0	stim010_stimuli_original_vehicles_boats_2.png	B	0	0	0	405.273606117116	405.473865822889
424.599	0.2	704	19	0	13	20	8	13	0	0	0	stim009_stimuli_original_vehicles_boats_1.png	U	0	0	0	405.673590123188	405.873621379549
424.999	0.2	705	19	0	13	21	5	3	0	0	0	stim006_stimuli_original_animals_fish_2.png	D	0	0	0	406.073610700725	406.273632204684
425.399	0.2	706	19	0	13	22	14	14	0	0	0	stim015_stimuli_original_vehicles_planes_3.png	V	0	0	0	406.473641518212	406.673638885084
425.799	0.2	707	19	0	13	23	7	11	1	1	0	stim008_stimuli_original_animals_fish_4.png	R	0	0	0	406.873647954781	407.073651173094
426.199	0.2	708	19	0	13	24	13	9	0	0	0	stim014_stimuli_original_vehicles_planes_2.png	L	0	0	0	407.273645858048	407.473665167752
426.599	0.2	709	19	0	13	25	7	11	1	1	1	stim008_stimuli_original_animals_fish_4.png	R	0	0	0	407.673668873671	407.873673067195
426.999	0.2	710	19	0	13	26	12	15	0	0	0	stim013_stimuli_original_vehicles_planes_1.png	Y	NaN	408.265455323912	1	408.073685550189	408.273686330416
427.399	0.2	711	19	0	13	27	11	10	0	0	0	stim012_stimuli_original_vehicles_boats_4.png	Q	0	0	0	408.473696619156	408.673695936508
427.799	0.2	712	19	0	13	28	3	7	0	0	0	stim004_stimuli_original_animals_birds_4.png	J	0	0	0	408.873683794809	409.073704811162
428.199	0.2	713	19	0	13	29	7	6	0	0	0	stim008_stimuli_original_animals_fish_4.png	G	0	0	0	409.273710467562	409.473717586778
428.599	0.2	714	19	0	13	30	0	12	0	0	0	stim001_stimuli_original_animals_birds_1.png	T	0	0	0	409.673730557435	409.87370841956
428.999	0.2	715	19	0	13	31	6	8	0	0	0	stim007_stimuli_original_animals_fish_3.png	K	0	0	0	410.073737237835	410.273734848481
429.399	0.2	716	19	0	13	32	2	5	0	0	0	stim003_stimuli_original_animals_birds_3.png	F	0	0	0	410.473743674404	410.673745429842
429.799	0.2	717	19	0	13	33	15	4	0	0	0	stim016_stimuli_original_vehicles_planes_4.png	E	0	0	0	410.873742065218	411.073741626402
430.199	0.2	718	19	0	13	34	10	0	0	0	0	stim011_stimuli_original_vehicles_boats_3.png	A	0	0	0	411.273764349404	411.473768055323
430.599	0.2	719	19	0	13	35	1	11	0	0	0	stim002_stimuli_original_animals_birds_2.png	R	0	0	0	411.673762740276	411.873760594754
438.85	0.2	720	20	1	40	0	11	2	0	0	0	stim012_stimuli_original_vehicles_boats_4.png	C	0	0	0	419.923990458308	420.123999528005
439.25	0.2	721	20	1	40	1	1	3	0	0	0	stim002_stimuli_original_animals_birds_2.png	D	0	0	0	420.323999576794	420.524002551218
439.65	0.2	722	20	1	40	2	5	11	0	0	0	stim006_stimuli_original_animals_fish_2.png	R	0	0	0	420.724000161921	420.924013376411
440.05	0.2	723	20	1	40	3	10	0	0	0	0	stim011_stimuli_original_vehicles_boats_3.png	A	0	0	0	421.124021470838	421.324007378658
440.45	0.2	724	20	1	40	4	15	14	0	0	0	stim016_stimuli_original_vehicles_planes_4.png	V	0	0	0	421.524029857886	421.724017228582
440.85	0.2	725	20	1	40	5	8	1	0	0	0	stim009_stimuli_original_vehicles_boats_1.png	B	0	0	0	421.92404531542	422.124054141343
441.25	0.2	726	20	1	40	6	4	6	0	1	0	stim005_stimuli_original_animals_fish_1.png	G	0	0	0	422.32404907007	422.524060821685
441.65	0.2	727	20	1	40	7	13	13	1	0	0	stim014_stimuli_original_vehicles_planes_2.png	U	0	0	0	422.724077449529	422.924078229698
442.05	0.2	728	20	1	40	8	3	6	0	1	1	stim004_stimuli_original_animals_birds_4.png	G	0	0	0	423.124079741305	423.324081252911
442.45	0.2	729	20	1	40	9	13	5	1	0	0	stim014_stimuli_original_vehicles_planes_2.png	F	0	0	0	423.524091785483	423.724096954276
442.85	0.2	730	20	1	40	10	12	4	0	0	0	stim013_stimuli_original_vehicles_planes_1.png	E	0	0	0	423.924081399222	424.124107535579
443.25	0.2	731	20	1	40	11	14	15	0	0	0	stim015_stimuli_original_vehicles_planes_3.png	Y	0	0	0	424.324109778623	424.524099831237
443.65	0.2	732	20	1	40	12	7	6	0	0	0	stim008_stimuli_original_animals_fish_4.png	G	0	0	0	424.724121579027	424.924127235368
444.05	0.2	733	20	1	40	13	9	8	0	0	0	stim010_stimuli_original_vehicles_boats_2.png	K	0	0	0	425.124134598416	425.324134403374
444.45	0.2	734	20	1	40	14	13	7	0	0	0	stim014_stimuli_original_vehicles_planes_2.png	J	0	0	0	425.524142985465	425.724143278028
444.85	0.2	735	20	1	40	15	6	10	0	0	0	stim007_stimuli_original_animals_fish_3.png	Q	0	0	0	425.924173071573	426.124156297476
445.25	0.2	736	20	1	40	16	2	9	0	0	0	stim003_stimuli_original_animals_birds_3.png	L	0	0	0	426.324163904355	426.524153713079
445.65	0.2	737	20	1	40	17	0	12	0	0	0	stim001_stimuli_original_animals_birds_1.png	T	0	0	0	426.724176679971	426.924180385831
446.05	0.2	738	20	1	40	18	12	0	0	0	0	stim013_stimuli_original_vehicles_planes_1.png	A	0	0	0	427.124182385101	427.324205595767
446.45	0.2	739	20	1	40	19	9	2	0	0	0	stim010_stimuli_original_vehicles_boats_2.png	C	0	0	0	427.52419345401	427.724199110409
446.85	0.2	740	20	1	40	20	10	6	0	0	0	stim011_stimuli_original_vehicles_boats_3.png	G	0	0	0	427.924205010582	428.124207253626
447.25	0.2	741	20	1	40	21	7	13	0	0	0	stim008_stimuli_original_animals_fish_4.png	U	0	0	0	428.32420388906	428.524224174034
447.65	0.2	742	20	1	40	22	8	9	0	0	0	stim009_stimuli_original_vehicles_boats_1.png	L	0	0	0	428.724481685553	428.924237193423
448.05	0.2	743	20	1	40	23	6	7	0	0	0	stim007_stimuli_original_animals_fish_3.png	J	0	0	0	429.124242605991	429.324232658604
448.45	0.2	744	20	1	40	24	15	14	0	0	0	stim016_stimuli_original_vehicles_planes_4.png	V	0	0	0	429.524221248284	429.724216664676
448.85	0.2	745	20	1	40	25	4	12	0	0	0	stim005_stimuli_original_animals_fish_1.png	T	0	0	0	429.924223052512	430.124236510776
449.25	0.2	746	20	1	40	26	5	13	0	1	0	stim006_stimuli_original_animals_fish_2.png	U	0	0	0	430.324263134797	430.524236120691
449.65	0.2	747	20	1	40	27	6	3	1	0	0	stim007_stimuli_original_animals_fish_3.png	D	0	0	0	430.7242473847	430.924291075324
450.05	0.2	748	20	1	40	28	13	13	0	1	1	stim014_stimuli_original_vehicles_planes_2.png	U	0	0	0	431.124297219329	431.324297024286
450.45	0.2	749	20	1	40	29	6	4	1	0	0	stim007_stimuli_original_animals_fish_3.png	E	0	0	0	431.524287808279	431.724303460855
450.85	0.2	750	20	1	40	30	1	8	0	0	0	stim002_stimuli_original_animals_birds_2.png	K	NaN	432.116099614708	1	431.924335692427	432.124299657415
451.25	0.2	751	20	1	40	31	14	15	0	0	0	stim015_stimuli_original_vehicles_planes_3.png	Y	0	0	0	432.324326037604	432.524324379687
451.65	0.2	752	20	1	40	32	0	10	0	0	0	stim001_stimuli_original_animals_birds_1.png	Q	0	0	0	432.724316870386	432.924336911528
452.05	0.2	753	20	1	40	33	11	5	0	0	0	stim012_stimuli_original_vehicles_boats_4.png	F	0	0	0	433.124345981225	433.324347736663
452.45	0.2	754	20	1	40	34	3	1	0	0	0	stim004_stimuli_original_animals_birds_4.png	B	0	0	0	433.524318772077	433.724330036086
452.85	0.2	755	20	1	40	35	2	11	0	0	0	stim003_stimuli_original_animals_birds_3.png	R	0	0	0	433.924364461971	434.124795565789
457.117	0.2	756	21	0	7	0	9	0	0	0	0	stim010_stimuli_original_vehicles_boats_2.png	A	0	0	0	438.191136356792	438.391139331274
457.517	0.2	757	21	0	7	1	0	15	0	0	0	stim001_stimuli_original_animals_birds_1.png	Y	0	0	0	438.591146694322	438.791156495456
457.917	0.2	758	21	0	7	2	7	14	0	0	0	stim008_stimuli_original_animals_fish_4.png	V	0	0	0	438.991157031851	439.191161469149
458.317	0.2	759	21	0	7	3	13	11	0	0	0	stim014_stimuli_original_vehicles_planes_2.png	R	0	0	0	439.391169807466	439.591173025721
458.717	0.2	760	21	0	7	4	11	3	0	0	0	stim012_stimuli_original_vehicles_boats_4.png	D	0	0	0	439.791178438289	439.991179706121
459.117	0.2	761	21	0	7	5	4	7	1	0	0	stim005_stimuli_original_animals_fish_1.png	J	0	0	0	440.191189751029	440.39119565126
459.517	0.2	762	21	0	7	6	6	4	0	0	0	stim007_stimuli_original_animals_fish_3.png	E	0	0	0	440.591206671437	440.791184777336
459.917	0.2	763	21	0	7	7	4	2	1	1	1	stim005_stimuli_original_animals_fish_1.png	C	0	0	0	440.991216765135	441.191202429123
460.317	0.2	764	21	0	7	8	12	5	0	0	0	stim013_stimuli_original_vehicles_planes_1.png	F	NaN	441.582991024887	1	441.391228321707	441.591236659966
460.717	0.2	765	21	0	7	9	2	2	0	1	0	stim003_stimuli_original_animals_birds_3.png	C	0	0	0	441.791239390674	441.991241389886
461.117	0.2	766	21	0	7	10	15	10	0	0	0	stim016_stimuli_original_vehicles_planes_4.png	Q	0	0	0	442.191249484371	442.391253434063
461.517	0.2	767	21	0	7	11	14	12	0	0	0	stim015_stimuli_original_vehicles_planes_3.png	T	0	0	0	442.591259334295	442.791548053385
461.917	0.2	768	21	0	7	12	5	8	0	0	0	stim006_stimuli_original_animals_fish_2.png	K	0	0	0	442.991258700378	443.191280448169
462.317	0.2	769	21	0	7	13	8	1	0	0	0	stim009_stimuli_original_vehicles_boats_1.png	B	0	0	0	443.391283910256	443.591292248515
462.717	0.2	770	21	0	7	14	4	6	0	0	0	stim005_stimuli_original_animals_fish_1.png	G	0	0	0	443.791294735391	443.991277961293
463.117	0.2	771	21	0	7	15	1	13	0	0	0	stim002_stimuli_original_animals_birds_2.png	U	0	0	0	444.191303610045	444.391307072132
463.517	0.2	772	21	0	7	16	3	2	0	0	0	stim004_stimuli_original_animals_birds_4.png	C	0	0	0	444.591315898055	444.791301805875
463.917	0.2	773	21	0	7	17	10	9	0	0	0	stim011_stimuli_original_vehicles_boats_3.png	L	0	0	0	444.991324285103	445.191333111026
464.317	0.2	774	21	0	7	18	9	10	0	0	0	stim010_stimuli_original_vehicles_boats_2.png	Q	0	0	0	445.391341449285	445.591343204724
464.717	0.2	775	21	0	7	19	2	3	0	0	0	stim003_stimuli_original_animals_birds_3.png	D	0	0	0	445.791347398248	445.991347446979
465.117	0.2	776	21	0	7	20	13	1	0	0	0	stim014_stimuli_original_vehicles_planes_2.png	B	0	0	0	446.19134188816	446.391345837852
465.517	0.2	777	21	0	7	21	6	4	0	0	0	stim007_stimuli_original_animals_fish_3.png	E	0	0	0	446.591369779955	446.791363733471
465.917	0.2	778	21	0	7	22	1	8	0	0	0	stim002_stimuli_original_animals_birds_2.png	K	0	0	0	446.991356467945	447.191357491945
466.317	0.2	779	21	0	7	23	8	5	0	0	0	stim009_stimuli_original_vehicles_boats_1.png	F	0	0	0	447.391386554053	447.591391722788
466.717	0.2	780	21	0	7	24	12	14	0	0	0	stim013_stimuli_original_vehicles_planes_1.png	V	0	0	0	447.791370560124	447.991372315562
467.117	0.2	781	21	0	7	25	10	15	0	0	0	stim011_stimuli_original_vehicles_boats_3.png	Y	0	0	0	448.191391625267	448.391411910183
467.517	0.2	782	21	0	7	26	2	2	1	0	0	stim003_stimuli_original_animals_birds_3.png	C	0	0	0	448.591395623749	448.791428342985
467.917	0.2	783	21	0	7	27	5	12	0	0	0	stim006_stimuli_original_animals_fish_2.png	T	0	0	0	448.991430098366	449.191430390987
468.317	0.2	784	21	0	7	28	2	4	1	1	1	stim003_stimuli_original_animals_birds_3.png	E	0	0	0	449.391422881628	449.591428538028
468.717	0.2	785	21	0	7	29	4	6	0	0	0	stim005_stimuli_original_animals_fish_1.png	G	NaN	449.784027751361	1	449.791431024845	449.991435706033
469.117	0.2	786	21	0	7	30	7	4	0	1	0	stim008_stimuli_original_animals_fish_4.png	E	0	0	0	450.191435998597	450.391437266371
469.517	0.2	787	21	0	7	31	3	11	0	0	0	stim004_stimuli_original_animals_birds_4.png	R	0	0	0	450.591472423694	450.791476373444
469.917	0.2	788	21	0	7	32	11	13	0	0	0	stim012_stimuli_original_vehicles_boats_4.png	U	0	0	0	450.991463744082	451.191484272829
470.317	0.2	789	21	0	7	33	14	7	0	0	0	stim015_stimuli_original_vehicles_planes_3.png	J	0	0	0	451.391478714009	451.591499974194
470.717	0.2	790	21	0	7	34	15	0	0	0	0	stim016_stimuli_original_vehicles_planes_4.png	A	0	0	0	451.791506118199	451.991529572639
471.117	0.2	791	21	0	7	35	0	9	0	0	0	stim001_stimuli_original_animals_birds_1.png	L	0	0	0	452.191517918545	452.391503826366
474.4	0.2	792	22	1	8	0	10	11	0	0	0	stim011_stimuli_original_vehicles_boats_3.png	R	0	0	0	455.474943948211	455.674937414122
474.8	0.2	793	22	1	8	1	5	2	0	0	0	stim006_stimuli_original_animals_fish_2.png	C	0	0	0	455.874948921963	456.07495140878
475.2	0.2	794	22	1	8	2	0	5	0	0	0	stim001_stimuli_original_animals_birds_1.png	F	0	0	0	456.274958528054	456.474951506301
475.6	0.2	795	22	1	8	3	1	7	0	0	0	stim002_stimuli_original_animals_birds_2.png	J	0	0	0	456.674951067485	456.874969889584
476	0.2	796	22	1	8	4	3	8	0	0	0	stim004_stimuli_original_animals_birds_4.png	K	0	0	0	457.074962136394	457.274980227055
476.4	0.2	797	22	1	8	5	6	6	0	0	0	stim007_stimuli_original_animals_fish_3.png	G	0	0	0	457.474990759627	457.674992758897
476.8	0.2	798	22	1	8	6	12	10	0	0	0	stim013_stimuli_original_vehicles_planes_1.png	Q	0	0	0	457.87498256762	458.075001633551
477.201	0.2	799	22	1	8	7	14	15	0	1	0	stim015_stimuli_original_vehicles_planes_3.png	Y	0	0	0	458.275010215642	458.475014165335
477.601	0.2	800	22	1	8	8	4	4	0	0	0	stim005_stimuli_original_animals_fish_1.png	E	0	0	0	458.675021528383	458.875022064778
