onset	duration	eventnumber	sequencenumber	condition	streamnumber	stimnumber	objectstimnumber	letterstimnumber	objecttarget	lettertarget	is2back	objectstim	letterstim	response	rt	correct	time_stimon	time_stimoff
12.341	0.2	0	0	0	14	0	10	1	0	0	0	stim011_stimuli_original_vehicles_boats_3.png	B	0	0	0	34.4192642123671	34.6192654801998
12.742	0.2	1	0	0	14	1	12	6	0	0	0	stim013_stimuli_original_vehicles_planes_1.png	G	0	0	0	34.8201895667007	35.0192611891543
13.141	0.2	2	0	0	14	2	5	8	0	0	0	stim006_stimuli_original_animals_fish_2.png	K	0	0	0	35.2192566054873	35.4192639685934
13.541	0.2	3	0	0	14	3	13	12	0	0	0	stim014_stimuli_original_vehicles_planes_2.png	T	0	0	0	35.6192752325442	35.8192743060645
13.941	0.2	4	0	0	14	4	7	9	0	0	0	stim008_stimuli_original_animals_fish_4.png	L	0	0	0	36.0192855701316	36.2192814741284
14.341	0.2	5	0	0	14	5	5	3	1	1	0	stim006_stimuli_original_animals_fish_2.png	D	0	0	0	36.4192832295084	36.6192918115994
14.741	0.2	6	0	0	14	6	6	10	0	0	0	stim007_stimuli_original_animals_fish_3.png	Q	0	0	0	36.8193259936525	37.0193389643682
15.141	0.2	7	0	0	14	7	5	3	1	1	1	stim006_stimuli_original_animals_fish_2.png	D	0	0	0	37.2193341369275	37.4193375989562
15.541	0.2	8	0	0	14	8	2	11	0	0	0	stim003_stimuli_original_animals_birds_3.png	R	0	0	0	37.6193464249372	37.8193525689421
15.941	0.2	9	0	0	14	9	0	15	0	0	0	stim001_stimuli_original_animals_birds_1.png	Y	NaN	38.0121027003042	1	38.0193765109871	38.2193626626395
16.341	0.2	10	0	0	14	10	4	3	0	0	0	stim005_stimuli_original_animals_fish_1.png	D	0	0	0	38.4193590541836	38.6193693430396
16.741	0.2	11	0	0	14	11	1	14	0	0	0	stim002_stimuli_original_animals_birds_2.png	V	0	0	0	38.8193798755528	39.0193845566828
17.141	0.2	12	0	0	14	12	15	0	0	0	0	stim016_stimuli_original_vehicles_planes_4.png	A	0	0	0	39.2193877749378	39.419389774208
17.541	0.2	13	0	0	14	13	11	7	0	0	0	stim012_stimuli_original_vehicles_boats_4.png	J	0	0	0	39.6193995754002	39.8194005993428
17.941	0.2	14	0	0	14	14	8	5	0	0	0	stim009_stimuli_original_vehicles_boats_1.png	F	0	0	0	40.0193877262063	40.2193987463834
18.341	0.2	15	0	0	14	15	3	2	0	0	0	stim004_stimuli_original_animals_birds_4.png	C	0	0	0	40.4194175684825	40.6194056705572
18.741	0.2	16	0	0	14	16	9	4	0	0	0	stim010_stimuli_original_vehicles_boats_2.png	E	0	0	0	40.8194352203282	41.0194386823568
19.141	0.2	17	0	0	14	17	14	13	0	0	0	stim015_stimuli_original_vehicles_planes_3.png	U	0	0	0	41.219440681627	41.4194268332794
19.541	0.2	18	0	0	14	18	13	14	0	0	0	stim014_stimuli_original_vehicles_planes_2.png	V	0	0	0	41.6194498001132	41.8194559441181
19.941	0.2	19	0	0	14	19	4	9	0	0	0	stim005_stimuli_original_animals_fish_1.png	L	0	0	0	42.0194623318966	42.2194670130266
20.341	0.2	20	0	0	14	20	2	3	0	0	0	stim003_stimuli_original_animals_birds_3.png	D	0	0	0	42.4194697437342	42.6194697924657
20.741	0.2	21	0	0	14	21	5	8	0	0	0	stim006_stimuli_original_animals_fish_2.png	K	0	0	0	42.8194532622583	43.0194920767099
21.141	0.2	22	0	0	14	22	7	11	0	0	0	stim008_stimuli_original_animals_fish_4.png	R	0	0	0	43.2195052910829	43.4194814466173
21.541	0.2	23	0	0	14	23	0	15	0	0	0	stim001_stimuli_original_animals_birds_1.png	Y	0	0	0	43.6194875906222	43.8195178717142
21.941	0.2	24	0	0	14	24	14	1	0	0	0	stim015_stimuli_original_vehicles_planes_3.png	B	0	0	0	44.0195142633747	44.2195072416216
22.341	0.2	25	0	0	14	25	3	4	0	0	0	stim004_stimuli_original_animals_birds_4.png	E	0	0	0	44.4195116789779	44.6195139220217
22.741	0.2	26	0	0	14	26	15	0	0	0	0	stim016_stimuli_original_vehicles_planes_4.png	A	0	0	0	44.8195483478485	45.0195469338214
23.141	0.2	27	0	0	14	27	11	2	0	0	0	stim012_stimuli_original_vehicles_boats_4.png	C	0	0	0	45.2195547844749	45.4195365475025
23.541	0.2	28	0	0	14	28	3	5	1	1	0	stim004_stimuli_original_animals_birds_4.png	F	0	0	0	45.6195568324765	45.8195420088014
23.941	0.2	29	0	0	14	29	10	6	0	0	0	stim011_stimuli_original_vehicles_boats_3.png	G	0	0	0	46.0195376690244	46.2195396682946
24.341	0.2	30	0	0	14	30	3	5	1	1	1	stim004_stimuli_original_animals_birds_4.png	F	0	0	0	46.4195467875106	46.6195502495393
24.741	0.2	31	0	0	14	31	9	7	0	0	0	stim010_stimuli_original_vehicles_boats_2.png	J	NaN	46.8121260572225	1	46.8195610259427	47.0195625375491
25.141	0.2	32	0	0	14	32	12	13	0	0	0	stim013_stimuli_original_vehicles_planes_1.png	U	0	0	0	47.219568925444	47.4195731189102
25.542	0.2	33	0	0	14	33	8	5	0	0	0	stim009_stimuli_original_vehicles_boats_1.png	F	0	0	0	47.6195865771733	47.8195815059589
25.942	0.2	34	0	0	14	34	6	12	0	0	0	stim007_stimuli_original_animals_fish_3.png	T	0	0	0	48.0195917946985	48.219595744391
26.342	0.2	35	0	0	14	35	1	10	0	0	0	stim002_stimuli_original_animals_birds_2.png	Q	0	0	0	48.4196023760596	48.6196029124549
28.525	0.2	36	1	1	26	0	0	7	0	0	0	stim001_stimuli_original_animals_birds_1.png	J	0	0	0	50.6030102175428	50.8030136796879
28.925	0.2	37	1	1	26	1	9	1	0	0	0	stim010_stimuli_original_vehicles_boats_2.png	B	0	0	0	51.0030176293803	51.2030447409488
29.325	0.2	38	1	1	26	2	6	9	0	0	0	stim007_stimuli_original_animals_fish_3.png	L	0	0	0	51.4030306488276	51.6032813336933
29.725	0.2	39	1	1	26	3	7	3	0	0	0	stim008_stimuli_original_animals_fish_4.png	D	0	0	0	51.8030400110874	52.0030727302656
30.125	0.2	40	1	1	26	4	13	11	0	0	0	stim014_stimuli_original_vehicles_planes_2.png	R	0	0	0	52.2030679028248	52.4030538107036
30.525	0.2	41	1	1	26	5	2	14	0	0	0	stim003_stimuli_original_animals_birds_3.png	V	0	0	0	52.6030660498654	52.8030648796121
30.925	0.2	42	1	1	26	6	15	13	0	1	0	stim016_stimuli_original_vehicles_planes_4.png	U	0	0	0	53.0030856521334	53.2030922838021
31.325	0.2	43	1	1	26	7	4	10	0	0	0	stim005_stimuli_original_animals_fish_1.png	Q	0	0	0	53.4031028163154	53.6031014022883
31.725	0.2	44	1	1	26	8	5	13	0	1	1	stim006_stimuli_original_animals_fish_2.png	U	0	0	0	53.803110472043	54.0031197854551
32.125	0.2	45	1	1	26	9	8	15	0	0	0	stim009_stimuli_original_vehicles_boats_1.png	Y	NaN	54.1956965684658	1	54.203118371428	54.4031220773468
32.525	0.2	46	1	1	26	10	2	12	1	0	0	stim003_stimuli_original_animals_birds_3.png	T	0	0	0	54.6031155432574	54.803135096794
32.925	0.2	47	1	1	26	11	12	0	0	0	0	stim013_stimuli_original_vehicles_planes_1.png	A	0	0	0	55.0031407531351	55.2031481161248
33.325	0.2	48	1	1	26	12	2	5	1	0	0	stim003_stimuli_original_animals_birds_3.png	F	0	0	0	55.4031376810744	55.6031535775401
33.725	0.2	49	1	1	26	13	10	8	0	0	0	stim011_stimuli_original_vehicles_boats_3.png	K	0	0	0	55.803162159631	56.0031639150111
34.125	0.2	50	1	1	26	14	11	6	0	0	0	stim012_stimuli_original_vehicles_boats_4.png	G	0	0	0	56.2031800552504	56.4031764467945
34.525	0.2	51	1	1	26	15	1	13	0	0	0	stim002_stimuli_original_animals_birds_2.png	U	0	0	0	56.6031825907994	56.803186784382
34.925	0.2	52	1	1	26	16	14	2	0	0	0	stim015_stimuli_original_vehicles_planes_3.png	C	0	0	0	57.0032034121687	57.2031800552504
35.325	0.2	53	1	1	26	17	3	4	0	0	0	stim004_stimuli_original_animals_birds_4.png	E	0	0	0	57.403205703944	57.6031930745812
35.725	0.2	54	1	1	26	18	4	3	0	0	0	stim005_stimuli_original_animals_fish_1.png	D	0	0	0	57.8031841024058	58.0031909778481
36.125	0.2	55	1	1	26	19	2	14	0	0	0	stim003_stimuli_original_animals_birds_3.png	V	0	0	0	58.2031956589781	58.403198145912
36.525	0.2	56	1	1	26	20	13	1	0	0	0	stim014_stimuli_original_vehicles_planes_2.png	B	0	0	0	58.6032033145893	58.8032075081719
36.925	0.2	57	1	1	26	21	6	11	0	0	0	stim007_stimuli_original_animals_fish_3.png	R	0	0	0	59.0032151150517	59.2032195522916
37.325	0.2	58	1	1	26	22	8	10	0	0	0	stim009_stimuli_original_vehicles_boats_1.png	Q	0	0	0	59.4032400810393	59.6032598784659
37.725	0.2	59	1	1	26	23	5	2	0	1	0	stim006_stimuli_original_animals_fish_2.png	C	0	0	0	59.8032691918779	60.0032763112104
38.125	0.2	60	1	1	26	24	0	12	0	0	0	stim001_stimuli_original_animals_birds_1.png	T	0	0	0	60.2032834304264	60.4032820162829
38.525	0.2	61	1	1	26	25	12	2	0	1	1	stim013_stimuli_original_vehicles_planes_1.png	C	0	0	0	60.6032903546002	60.8033033251995
38.925	0.2	62	1	1	26	26	15	8	0	0	0	stim016_stimuli_original_vehicles_planes_4.png	K	NaN	61.1950658333953	1	61.0032997168601	61.2033065923024
39.325	0.2	63	1	1	26	27	13	5	1	0	0	stim014_stimuli_original_vehicles_planes_2.png	F	0	0	0	61.4033149306197	61.6032979126321
39.725	0.2	64	1	1	26	28	10	4	0	0	0	stim011_stimuli_original_vehicles_boats_3.png	E	0	0	0	61.8033203919185	62.0033255607123
40.125	0.2	65	1	1	26	29	13	15	1	0	0	stim014_stimuli_original_vehicles_planes_2.png	Y	0	0	0	62.2035606417339	62.4033358981833
40.525	0.2	66	1	1	26	30	14	2	0	0	0	stim015_stimuli_original_vehicles_planes_3.png	C	0	0	0	62.6033337527188	62.8033459918806
40.925	0.2	67	1	1	26	31	11	13	0	0	0	stim012_stimuli_original_vehicles_boats_4.png	U	0	0	0	63.0033479911508	63.2033490150934
41.325	0.2	68	1	1	26	32	3	7	0	0	0	stim004_stimuli_original_animals_birds_4.png	J	0	0	0	63.4033578410745	63.6033578898059
41.725	0.2	69	1	1	26	33	9	6	0	0	0	stim010_stimuli_original_vehicles_boats_2.png	G	0	0	0	63.8033681785455	64.0033667645184
42.125	0.2	70	1	1	26	34	1	9	0	0	0	stim002_stimuli_original_animals_birds_2.png	L	0	0	0	64.2033797351178	64.4033853914589
42.525	0.2	71	1	1	26	35	7	0	0	0	0	stim008_stimuli_original_animals_fish_4.png	A	0	0	0	64.6033908040263	64.8033925595228
45.042	0.2	72	2	0	12	0	1	4	0	0	0	stim002_stimuli_original_animals_birds_2.png	E	0	0	0	67.1201441694284	67.320133734378
45.442	0.2	73	2	0	12	1	5	9	0	0	0	stim006_stimuli_original_animals_fish_2.png	L	0	0	0	67.5201269563986	67.7201457784977
45.842	0.2	74	2	0	12	2	6	8	0	0	0	stim007_stimuli_original_animals_fish_3.png	K	0	0	0	67.9201546044787	68.1201629426796
46.242	0.2	75	2	0	12	3	12	10	0	0	0	stim013_stimuli_original_vehicles_planes_1.png	Q	0	0	0	68.3201586029027	68.5201686478686
46.642	0.2	76	2	0	12	4	11	7	0	0	0	stim012_stimuli_original_vehicles_boats_4.png	J	0	0	0	68.720172597561	68.9201731339563
47.042	0.2	77	2	0	12	5	3	1	0	0	0	stim004_stimuli_original_animals_birds_4.png	B	0	0	0	69.120188298868	69.320185421966
47.442	0.2	78	2	0	12	6	7	6	0	0	0	stim008_stimuli_original_animals_fish_4.png	G	0	0	0	69.520192541182	69.7201986851869
47.842	0.2	79	2	0	12	7	0	0	0	0	0	stim001_stimuli_original_animals_birds_1.png	A	0	0	0	69.9202026348794	70.1202078036731
48.242	0.2	80	2	0	12	8	13	11	0	0	0	stim014_stimuli_original_vehicles_planes_2.png	R	0	0	0	70.3202127285767	70.5202176535968
48.642	0.2	81	2	0	12	9	15	3	0	0	0	stim016_stimuli_original_vehicles_planes_4.png	D	0	0	0	70.7202101441799	70.9202131186612
49.042	0.2	82	2	0	12	10	0	2	1	0	0	stim001_stimuli_original_animals_birds_1.png	C	0	0	0	71.1202177997911	71.3202215057099
49.442	0.2	83	2	0	12	11	4	13	0	1	0	stim005_stimuli_original_animals_fish_1.png	U	0	0	0	71.5202417906839	71.720229648985
49.842	0.2	84	2	0	12	12	0	15	1	0	1	stim001_stimuli_original_animals_birds_1.png	Y	0	0	0	71.9202370119747	72.1202499826904
50.242	0.2	85	2	0	12	13	14	13	0	1	0	stim015_stimuli_original_vehicles_planes_3.png	U	0	0	0	72.3202475933358	72.5202515430283
50.642	0.2	86	2	0	12	14	2	12	0	0	0	stim003_stimuli_original_animals_birds_3.png	T	0	0	0	72.7202586622443	72.920267731999
51.042	0.2	87	2	0	12	15	8	14	0	0	0	stim009_stimuli_original_vehicles_boats_1.png	V	0	0	0	73.1202906988328	73.3202800200088
51.442	0.2	88	2	0	12	16	10	13	0	0	0	stim011_stimuli_original_vehicles_boats_3.png	U	0	0	0	73.5202825068263	73.7203013289254
51.842	0.2	89	2	0	12	17	9	5	0	0	0	stim010_stimuli_original_vehicles_boats_2.png	F	0	0	0	73.9203113738913	74.1203145921463
52.242	0.2	90	2	0	12	18	5	9	0	0	0	stim006_stimuli_original_animals_fish_2.png	L	0	0	0	74.3204665342346	74.5203302934533
52.642	0.2	91	2	0	12	19	13	10	0	0	0	stim014_stimuli_original_vehicles_planes_2.png	Q	0	0	0	74.7203298546374	74.9203377052909
53.042	0.2	92	2	0	12	20	14	8	0	0	0	stim015_stimuli_original_vehicles_planes_3.png	K	0	0	0	75.1203460436082	75.3203477989882
53.442	0.2	93	2	0	12	21	12	2	0	0	0	stim013_stimuli_original_vehicles_planes_1.png	C	0	0	0	75.5203366325004	75.7203359499108
53.842	0.2	94	2	0	12	22	13	14	1	0	0	stim014_stimuli_original_vehicles_planes_2.png	V	0	0	0	75.9203377052909	76.1203423864208
54.242	0.2	95	2	0	12	23	15	0	0	1	0	stim016_stimuli_original_vehicles_planes_4.png	A	0	0	0	76.3203434104798	76.5203483353835
54.642	0.2	96	2	0	12	24	13	4	1	0	1	stim014_stimuli_original_vehicles_planes_2.png	E	0	0	0	76.7203656946076	76.9203713510651
55.042	0.2	97	2	0	12	25	2	0	0	1	0	stim003_stimuli_original_animals_birds_3.png	A	0	0	0	77.1204074835405	77.320403875201
55.442	0.2	98	2	0	12	26	3	15	0	0	0	stim004_stimuli_original_animals_birds_4.png	Y	0	0	0	77.5204119696282	77.7204147003358
55.842	0.2	99	2	0	12	27	11	13	0	0	0	stim012_stimuli_original_vehicles_boats_4.png	U	0	0	0	77.9204264519503	78.1204267445719
56.242	0.2	100	2	0	12	28	0	0	0	0	0	stim001_stimuli_original_animals_birds_1.png	A	0	0	0	78.3204321571393	78.5204351315042
56.642	0.2	101	2	0	12	29	6	7	0	0	0	stim007_stimuli_original_animals_fish_3.png	J	0	0	0	78.7204295727424	78.9204488823889
57.042	0.2	102	2	0	12	30	1	3	0	0	0	stim002_stimuli_original_animals_birds_2.png	D	0	0	0	79.1204408854246	79.3204214294674
57.442	0.2	103	2	0	12	31	7	11	0	0	0	stim008_stimuli_original_animals_fish_4.png	R	0	0	0	79.5204392763553	79.7209096334409
57.842	0.2	104	2	0	12	32	10	12	0	0	0	stim011_stimuli_original_vehicles_boats_3.png	T	0	0	0	79.9204757014522	80.1205011063721
58.242	0.2	105	2	0	12	33	8	6	0	0	0	stim009_stimuli_original_vehicles_boats_1.png	G	0	0	0	80.3204892084468	80.5204831620213
58.642	0.2	106	2	0	12	34	9	5	0	0	0	stim010_stimuli_original_vehicles_boats_2.png	F	0	0	0	80.7204805288929	80.9204961814685
59.042	0.2	107	2	0	12	35	4	1	0	0	0	stim005_stimuli_original_animals_fish_1.png	B	0	0	0	81.1204855026444	81.3205094446894
68.726	0.2	108	3	1	10	0	6	9	0	0	0	stim007_stimuli_original_animals_fish_3.png	L	0	0	0	90.8040971687296	91.0040691794129
69.126	0.2	109	3	1	10	1	1	5	0	0	0	stim002_stimuli_original_animals_birds_2.png	F	0	0	0	91.2040741044329	91.4040751283756
69.526	0.2	110	3	1	10	2	9	12	0	0	0	stim010_stimuli_original_vehicles_boats_2.png	T	0	0	0	91.6040846856777	91.804085465963
69.926	0.2	111	3	1	10	3	7	10	0	0	0	stim008_stimuli_original_animals_fish_4.png	Q	0	0	0	92.0040920975152	92.2040962910978
70.326	0.2	112	3	1	10	4	12	13	0	0	0	stim013_stimuli_original_vehicles_planes_1.png	U	0	0	0	92.4041129188845	92.6041090666549
70.726	0.2	113	3	1	10	5	3	2	0	1	0	stim004_stimuli_original_animals_birds_4.png	C	0	0	0	92.8041210620431	93.0041198917897
71.126	0.2	114	3	1	10	6	11	4	0	0	0	stim012_stimuli_original_vehicles_boats_4.png	E	0	0	0	93.204124329146	93.4041302293772
71.526	0.2	115	3	1	10	7	8	2	0	1	1	stim009_stimuli_original_vehicles_boats_1.png	C	0	0	0	93.6045723046409	93.8041800640058
71.926	0.2	116	3	1	10	8	13	14	0	0	0	stim014_stimuli_original_vehicles_planes_2.png	V	0	0	0	94.0041723108152	94.2041811367963
72.326	0.2	117	3	1	10	9	4	0	0	0	0	stim005_stimuli_original_animals_fish_1.png	A	0	0	0	94.4041875245748	94.6041975695407
72.726	0.2	118	3	1	10	10	11	7	1	0	0	stim012_stimuli_original_vehicles_boats_4.png	J	0	0	0	94.8042017630069	95.0042154651601
73.126	0.2	119	3	1	10	11	0	2	0	0	0	stim001_stimuli_original_animals_birds_1.png	C	0	0	0	95.2042094186181	95.4042111741146
73.526	0.2	120	3	1	10	12	11	1	1	0	0	stim012_stimuli_original_vehicles_boats_4.png	B	0	0	0	95.604222681839	95.804223705898
73.926	0.2	121	3	1	10	13	15	11	0	0	0	stim016_stimuli_original_vehicles_planes_4.png	R	0	0	0	96.0042110765353	96.2042584243463
74.326	0.2	122	3	1	10	14	10	15	0	0	0	stim011_stimuli_original_vehicles_boats_3.png	Y	0	0	0	96.40424262546	96.6042499885662
74.726	0.2	123	3	1	10	15	14	6	0	0	0	stim015_stimuli_original_vehicles_planes_3.png	G	0	0	0	96.8042534505948	97.0042388708098
75.126	0.2	124	3	1	10	16	5	8	0	0	0	stim006_stimuli_original_animals_fish_2.png	K	0	0	0	97.2042684204644	97.4042662749998
75.526	0.2	125	3	1	10	17	2	3	0	0	0	stim003_stimuli_original_animals_birds_3.png	D	0	0	0	97.6042809523642	97.8042817325331
75.926	0.2	126	3	1	10	18	3	2	0	0	0	stim004_stimuli_original_animals_birds_4.png	C	0	0	0	98.0042844631243	98.204287193832
76.326	0.2	127	3	1	10	19	8	5	0	0	0	stim009_stimuli_original_vehicles_boats_1.png	F	NaN	98.6044784379192	0	98.4042889493285	98.6042872914113
76.726	0.2	128	3	1	10	20	6	14	0	0	0	stim007_stimuli_original_animals_fish_3.png	V	NaN	98.8143008374609	0	98.8042966049397	99.0045148631325
77.126	0.2	129	3	1	10	21	15	10	0	0	0	stim016_stimuli_original_vehicles_planes_4.png	Q	0	0	0	99.2043037728872	99.4043206444476
77.526	0.2	130	3	1	10	22	11	15	0	0	0	stim012_stimuli_original_vehicles_boats_4.png	Y	0	0	0	99.6043097218499	99.8043297629338
77.926	0.2	131	3	1	10	23	1	11	0	1	0	stim002_stimuli_original_animals_birds_2.png	R	0	0	0	100.004337369814	100.204344245256
78.326	0.2	132	3	1	10	24	2	0	0	0	0	stim003_stimuli_original_animals_birds_3.png	A	0	0	0	100.404331859783	100.604350437992
78.726	0.2	133	3	1	10	25	7	11	0	1	1	stim008_stimuli_original_animals_fish_4.png	R	0	0	0	100.804361214396	101.004366383189
79.126	0.2	134	3	1	10	26	0	4	0	0	0	stim001_stimuli_original_animals_birds_1.png	E	0	0	0	101.204353753827	101.404374526348
79.526	0.2	135	3	1	10	27	14	13	0	0	0	stim015_stimuli_original_vehicles_planes_3.png	U	0	0	0	101.604366529384	101.804385107709
79.926	0.2	136	3	1	10	28	2	8	1	0	0	stim003_stimuli_original_animals_birds_3.png	K	0	0	0	102.004389788839	102.204400077579
80.326	0.2	137	3	1	10	29	4	11	0	0	0	stim005_stimuli_original_animals_fish_1.png	R	0	0	0	102.404404027271	102.604405782768
80.726	0.2	138	3	1	10	30	2	3	1	0	0	stim003_stimuli_original_animals_birds_3.png	D	0	0	0	102.804412170546	103.004418558325
81.126	0.2	139	3	1	10	31	13	12	0	0	0	stim014_stimuli_original_vehicles_planes_2.png	T	0	0	0	103.204396908055	103.404392812052
81.526	0.2	140	3	1	10	32	10	7	0	0	0	stim011_stimuli_original_vehicles_boats_3.png	J	0	0	0	103.604401150369	103.804406562936
81.926	0.2	141	3	1	10	33	12	9	0	0	0	stim013_stimuli_original_vehicles_planes_1.png	L	0	0	0	104.004413682153	104.204414218548
82.326	0.2	142	3	1	10	34	5	1	0	0	0	stim006_stimuli_original_animals_fish_2.png	B	0	0	0	104.404462054023	104.604459177004
82.726	0.2	143	3	1	10	35	9	6	0	0	0	stim010_stimuli_original_vehicles_boats_2.png	G	0	0	0	104.804449473391	105.004469026928
103.477	0.2	144	4	0	24	0	4	14	0	0	0	stim005_stimuli_original_animals_fish_1.png	V	0	0	0	125.555019256077	125.755019792472
103.877	0.2	145	4	0	24	1	11	13	0	0	0	stim012_stimuli_original_vehicles_boats_4.png	U	0	0	0	125.955027886899	126.155033055693
104.277	0.2	146	4	0	24	2	12	8	0	0	0	stim013_stimuli_original_vehicles_planes_1.png	K	0	0	0	126.355023839627	126.555049000774
104.677	0.2	147	4	0	24	3	6	0	0	0	0	stim007_stimuli_original_animals_fish_3.png	A	0	0	0	126.755053925794	126.955052999314
105.077	0.2	148	4	0	24	4	8	3	0	0	0	stim009_stimuli_original_vehicles_boats_1.png	D	0	0	0	127.155061581405	127.355063336785
105.477	0.2	149	4	0	24	5	3	15	0	0	0	stim004_stimuli_original_animals_birds_4.png	Y	0	0	0	127.555041686515	127.755043441895
105.877	0.2	150	4	0	24	6	14	1	0	0	0	stim015_stimuli_original_vehicles_planes_3.png	B	0	0	0	127.955057144049	128.155058411881
106.277	0.2	151	4	0	24	7	0	4	0	0	0	stim001_stimuli_original_animals_birds_1.png	E	0	0	0	128.3550621178	128.555065336055
106.677	0.2	152	4	0	24	8	5	5	1	0	0	stim006_stimuli_original_animals_fish_2.png	F	0	0	0	128.75507123617	128.955076892627
107.077	0.2	153	4	0	24	9	2	9	0	0	0	stim003_stimuli_original_animals_birds_3.png	L	0	0	0	129.155120339477	129.355108929216
107.477	0.2	154	4	0	24	10	5	15	1	1	1	stim006_stimuli_original_animals_fish_2.png	Y	0	0	0	129.555107027409	129.755101468647
107.877	0.2	155	4	0	24	11	7	6	0	0	0	stim008_stimuli_original_animals_fish_4.png	G	0	0	0	129.955119071645	130.155106442282
108.277	0.2	156	4	0	24	12	9	15	0	1	0	stim010_stimuli_original_vehicles_boats_2.png	Y	0	0	0	130.35512989678	130.555114829331
108.677	0.2	157	4	0	24	13	10	12	0	0	0	stim011_stimuli_original_vehicles_boats_3.png	T	0	0	0	130.755124142859	130.955128580215
109.077	0.2	158	4	0	24	14	13	10	0	0	0	stim014_stimuli_original_vehicles_planes_2.png	Q	0	0	0	131.155140575604	131.355179390055
109.477	0.2	159	4	0	24	15	1	2	0	0	0	stim002_stimuli_original_animals_birds_2.png	C	0	0	0	131.555192604545	131.755179731408
109.877	0.2	160	4	0	24	16	5	11	0	0	0	stim006_stimuli_original_animals_fish_2.png	R	0	0	0	131.955190995475	132.155180316535
110.277	0.2	161	4	0	24	17	15	7	0	0	0	stim016_stimuli_original_vehicles_planes_4.png	J	0	0	0	132.355196944322	132.555188703584
110.677	0.2	162	4	0	24	18	7	15	0	0	0	stim008_stimuli_original_animals_fish_4.png	Y	0	0	0	132.755202893284	132.955203185906
111.077	0.2	163	4	0	24	19	11	5	0	0	0	stim012_stimuli_original_vehicles_boats_4.png	F	0	0	0	133.155213718419	133.355211085291
111.477	0.2	164	4	0	24	20	2	1	0	0	0	stim003_stimuli_original_animals_birds_3.png	B	0	0	0	133.555222593131	133.755223860964
111.877	0.2	165	4	0	24	21	10	13	0	0	0	stim011_stimuli_original_vehicles_boats_3.png	U	0	0	0	133.95523366204	134.15523858706
112.277	0.2	166	4	0	24	22	12	10	0	0	0	stim013_stimuli_original_vehicles_planes_1.png	Q	0	0	0	134.355246437714	134.555245755007
112.677	0.2	167	4	0	24	23	15	9	1	0	0	stim016_stimuli_original_vehicles_planes_4.png	L	0	0	0	134.755688074045	134.955260968767
113.077	0.2	168	4	0	24	24	6	7	0	0	0	stim007_stimuli_original_animals_fish_3.png	J	0	0	0	135.155267600319	135.355269843363
113.477	0.2	169	4	0	24	25	15	5	1	1	1	stim016_stimuli_original_vehicles_planes_4.png	F	0	0	0	135.555271842633	135.755278718076
113.877	0.2	170	4	0	24	26	9	2	0	0	0	stim010_stimuli_original_vehicles_boats_2.png	C	0	0	0	135.955285837292	136.155290518422
114.277	0.2	171	4	0	24	27	5	5	0	1	0	stim006_stimuli_original_animals_fish_2.png	F	0	0	0	136.355297637638	136.555300855893
114.677	0.2	172	4	0	24	28	4	0	0	0	0	stim005_stimuli_original_animals_fish_1.png	A	0	0	0	136.755305780913	136.95529900305
115.077	0.2	173	4	0	24	29	1	14	0	0	0	stim002_stimuli_original_animals_birds_2.png	V	0	0	0	137.155306122266	137.355308852857
115.477	0.2	174	4	0	24	30	15	3	0	0	0	stim016_stimuli_original_vehicles_planes_4.png	D	0	0	0	137.555318410276	137.755311632296
115.877	0.2	175	4	0	24	31	3	8	0	0	0	stim004_stimuli_original_animals_birds_4.png	K	NaN	138.147091207094	0	137.955326553434	138.155323920306
116.277	0.2	176	4	0	24	32	0	6	0	0	0	stim001_stimuli_original_animals_birds_1.png	G	0	0	0	138.355333721498	138.555337671191
116.677	0.2	177	4	0	24	33	8	12	0	0	0	stim009_stimuli_original_vehicles_boats_1.png	T	0	0	0	138.755363807548	138.955371658201
117.077	0.2	178	4	0	24	34	13	11	0	0	0	stim014_stimuli_original_vehicles_planes_2.png	R	0	0	0	139.15537804598	139.355385896633
117.477	0.2	179	4	0	24	35	14	4	0	0	0	stim015_stimuli_original_vehicles_planes_3.png	E	0	0	0	139.55539057788	139.755396721768
122.594	0.2	180	5	1	24	0	4	14	0	0	0	stim005_stimuli_original_animals_fish_1.png	V	0	0	0	144.672167007462	144.872184366686
122.994	0.2	181	5	1	24	1	11	13	0	0	0	stim012_stimuli_original_vehicles_boats_4.png	U	0	0	0	145.07221611077	145.272190559539
123.394	0.2	182	5	1	24	2	12	8	0	0	0	stim013_stimuli_original_vehicles_planes_1.png	K	0	0	0	145.47219914163	145.672197727486
123.794	0.2	183	5	1	24	3	6	0	0	0	0	stim007_stimuli_original_animals_fish_3.png	A	0	0	0	145.872212404851	146.072214160231
124.194	0.2	184	5	1	24	4	8	3	0	0	0	stim009_stimuli_original_vehicles_boats_1.png	D	0	0	0	146.272219572798	146.47224058921
124.594	0.2	185	5	1	24	5	3	15	0	0	0	stim004_stimuli_original_animals_birds_4.png	Y	0	0	0	146.672246489325	146.872270431486
124.994	0.2	186	5	1	24	6	14	1	0	0	0	stim015_stimuli_original_vehicles_planes_3.png	B	0	0	0	147.072256826912	147.272244928987
125.394	0.2	187	5	1	24	7	0	4	0	0	0	stim001_stimuli_original_animals_birds_1.png	E	0	0	0	147.472250829218	147.672270138864
125.794	0.2	188	5	1	24	8	5	5	1	0	0	stim006_stimuli_original_animals_fish_2.png	F	0	0	0	147.872283597128	148.072305101203
126.194	0.2	189	5	1	24	9	2	9	0	0	0	stim003_stimuli_original_animals_birds_3.png	L	0	0	0	148.272276867996	148.472293252009
126.594	0.2	190	5	1	24	10	5	15	1	1	0	stim006_stimuli_original_animals_fish_2.png	Y	0	0	0	148.672287205583	148.872306271456
126.994	0.2	191	5	1	24	11	7	6	0	0	0	stim008_stimuli_original_animals_fish_4.png	G	0	0	0	149.072309002164	149.272295641364
127.394	0.2	192	5	1	24	12	9	15	0	1	1	stim010_stimuli_original_vehicles_boats_2.png	Y	0	0	0	149.47232348437	149.672577094985
127.794	0.2	193	5	1	24	13	10	12	0	0	0	stim011_stimuli_original_vehicles_boats_3.png	T	0	0	0	149.872334309504	150.072334114462
128.194	0.2	194	5	1	24	14	13	10	0	0	0	stim014_stimuli_original_vehicles_planes_2.png	Q	0	0	0	150.272343184217	150.472346646246
128.594	0.2	195	5	1	24	15	1	2	0	0	0	stim002_stimuli_original_animals_birds_2.png	C	NaN	150.664900754928	1	150.672351327376	150.872364541865
128.994	0.2	196	5	1	24	16	5	11	0	0	0	stim006_stimuli_original_animals_fish_2.png	R	0	0	0	151.072363615385	151.272383656586
129.394	0.2	197	5	1	24	17	15	7	0	0	0	stim016_stimuli_original_vehicles_planes_4.png	J	0	0	0	151.472373465309	151.672360592172
129.794	0.2	198	5	1	24	18	7	15	0	0	0	stim008_stimuli_original_animals_fish_4.png	Y	0	0	0	151.872385753319	152.072392141097
130.194	0.2	199	5	1	24	19	11	5	0	0	0	stim012_stimuli_original_vehicles_boats_4.png	F	0	0	0	152.272395359469	152.472398821497
130.594	0.2	200	5	1	24	20	2	1	0	0	0	stim003_stimuli_original_animals_birds_3.png	B	0	0	0	152.672388630221	152.872410621843
130.994	0.2	201	5	1	24	21	10	13	0	0	0	stim011_stimuli_original_vehicles_boats_3.png	U	0	0	0	153.072417741176	153.272422178416
131.394	0.2	202	5	1	24	22	12	10	0	0	0	stim013_stimuli_original_vehicles_planes_1.png	Q	0	0	0	153.472430272959	153.672430321691
131.794	0.2	203	5	1	24	23	15	9	1	0	0	stim016_stimuli_original_vehicles_planes_4.png	L	0	0	0	153.872436709469	154.072424811544
132.194	0.2	204	5	1	24	24	6	7	0	0	0	stim007_stimuli_original_animals_fish_3.png	J	0	0	0	154.272451191791	154.472451484296
132.594	0.2	205	5	1	24	25	15	5	1	1	0	stim016_stimuli_original_vehicles_planes_4.png	F	0	0	0	154.672443731222	154.872461821884
132.994	0.2	206	5	1	24	26	9	2	0	0	0	stim010_stimuli_original_vehicles_boats_2.png	C	0	0	0	155.072456994443	155.272482887027
133.394	0.2	207	5	1	24	27	5	5	0	1	1	stim006_stimuli_original_animals_fish_2.png	F	0	0	0	155.472480253899	155.67248322838
133.794	0.2	208	5	1	24	28	4	0	0	0	0	stim005_stimuli_original_animals_fish_1.png	A	0	0	0	155.872488397057	156.072479424882
134.194	0.2	209	5	1	24	29	1	14	0	0	0	stim002_stimuli_original_animals_birds_2.png	V	0	0	0	156.272479961277	156.472479522461
134.594	0.2	210	5	1	24	30	15	3	0	0	0	stim016_stimuli_original_vehicles_planes_4.png	D	0	0	0	156.672482740716	156.872483520885
134.994	0.2	211	5	1	24	31	3	8	0	0	0	stim004_stimuli_original_animals_birds_4.png	K	0	0	0	157.072496003937	157.272496540332
135.394	0.2	212	5	1	24	32	0	6	0	0	0	stim001_stimuli_original_animals_birds_1.png	G	0	0	0	157.472507804283	157.672504927381
135.794	0.2	213	5	1	24	33	8	12	0	0	0	stim009_stimuli_original_vehicles_boats_1.png	T	0	0	0	157.872517654207	158.072519653477
136.194	0.2	214	5	1	24	34	13	11	0	0	0	stim014_stimuli_original_vehicles_planes_2.png	R	0	0	0	158.272559930803	158.472527065314
136.594	0.2	215	5	1	24	35	14	4	0	0	0	stim015_stimuli_original_vehicles_planes_3.png	E	0	0	0	158.67253394064	158.872548861778
141.494	0.2	216	6	0	22	0	14	2	0	0	0	stim015_stimuli_original_vehicles_planes_3.png	C	0	0	0	163.572684468585	163.772699389723
141.894	0.2	217	6	0	22	1	13	8	0	0	0	stim014_stimuli_original_vehicles_planes_2.png	K	0	0	0	163.972706996603	164.17271826067
142.294	0.2	218	6	0	22	2	15	3	0	0	0	stim016_stimuli_original_vehicles_planes_4.png	D	0	0	0	164.372720747488	164.572723234305
142.694	0.2	219	6	0	22	3	9	15	0	0	0	stim010_stimuli_original_vehicles_boats_2.png	Y	0	0	0	164.772732547834	164.972735034768
143.094	0.2	220	6	0	22	4	7	0	0	0	0	stim008_stimuli_original_animals_fish_4.png	A	0	0	0	165.172721917741	165.372726842761
143.494	0.2	221	6	0	22	5	2	5	0	0	0	stim003_stimuli_original_animals_birds_3.png	F	0	0	0	165.572732011438	165.772759854561
143.894	0.2	222	6	0	22	6	8	9	0	0	0	stim009_stimuli_original_vehicles_boats_1.png	L	0	0	0	165.972763316589	166.172761414899
144.294	0.2	223	6	0	22	7	6	7	0	0	0	stim007_stimuli_original_animals_fish_3.png	J	0	0	0	166.372772922739	166.572759561939
144.694	0.2	224	6	0	22	8	11	4	0	0	0	stim012_stimuli_original_vehicles_boats_4.png	E	0	0	0	166.772751808749	166.972749907058
145.094	0.2	225	6	0	22	9	10	13	0	0	0	stim011_stimuli_original_vehicles_boats_3.png	U	0	0	0	167.172760195797	167.372769753216
145.494	0.2	226	6	0	22	10	6	3	1	1	0	stim007_stimuli_original_animals_fish_3.png	D	0	0	0	167.572777116206	167.772775702178
145.894	0.2	227	6	0	22	11	4	1	0	0	0	stim005_stimuli_original_animals_fish_1.png	B	0	0	0	167.972785990918	168.172785064438
146.294	0.2	228	6	0	22	12	6	3	1	1	1	stim007_stimuli_original_animals_fish_3.png	D	0	0	0	168.372829730273	168.57281076198
146.694	0.2	229	6	0	22	13	1	12	0	0	0	stim002_stimuli_original_animals_birds_2.png	T	0	0	0	168.772838361212	168.972842798452
147.094	0.2	230	6	0	22	14	3	14	0	0	0	stim004_stimuli_original_animals_birds_4.png	V	0	0	0	169.172847479582	169.372854355024
147.495	0.2	231	6	0	22	15	5	10	0	0	0	stim006_stimuli_original_animals_fish_2.png	Q	0	0	0	169.573341047391	169.77286639926
147.894	0.2	232	6	0	22	16	12	6	0	0	0	stim013_stimuli_original_vehicles_planes_1.png	G	0	0	0	169.972867179429	170.172869666247
148.294	0.2	233	6	0	22	17	0	11	0	0	0	stim001_stimuli_original_animals_birds_1.png	R	0	0	0	170.372879467439	170.572865131428
148.694	0.2	234	6	0	22	18	11	0	0	0	0	stim012_stimuli_original_vehicles_boats_4.png	A	0	0	0	170.772891267785	170.972893754602
149.094	0.2	235	6	0	22	19	6	12	0	0	0	stim007_stimuli_original_animals_fish_3.png	T	0	0	0	171.17290867574	171.372904823627
149.494	0.2	236	6	0	22	20	10	5	0	0	0	stim011_stimuli_original_vehicles_boats_3.png	F	0	0	0	171.572908529546	171.77291077259
149.894	0.2	237	6	0	22	21	14	3	0	0	0	stim015_stimuli_original_vehicles_planes_3.png	D	0	0	0	171.972896192805	172.172899167286
150.294	0.2	238	6	0	22	22	12	1	0	0	0	stim013_stimuli_original_vehicles_planes_1.png	B	0	0	0	172.372903604526	172.572904384695
150.694	0.2	239	6	0	22	23	3	6	1	1	0	stim004_stimuli_original_animals_birds_4.png	G	0	0	0	172.772914185887	172.972952512675
151.094	0.2	240	6	0	22	24	1	4	0	0	0	stim002_stimuli_original_animals_birds_2.png	E	0	0	0	173.172950610984	173.372943833121
151.494	0.2	241	6	0	22	25	3	6	1	1	1	stim004_stimuli_original_animals_birds_4.png	G	0	0	0	173.57297118858	173.772969286772
151.894	0.2	242	6	0	22	26	13	10	0	0	0	stim014_stimuli_original_vehicles_planes_2.png	Q	0	0	0	173.972958607948	174.172978405259
152.294	0.2	243	6	0	22	27	4	11	0	0	0	stim005_stimuli_original_animals_fish_1.png	R	0	0	0	174.372988450225	174.572987523745
152.695	0.2	244	6	0	22	28	7	6	0	0	0	stim008_stimuli_original_animals_fish_4.png	G	0	0	0	174.772995618288	174.973459392553
153.095	0.2	245	6	0	22	29	9	8	0	0	0	stim010_stimuli_original_vehicles_boats_2.png	K	0	0	0	175.173006199533	175.373013562639
153.495	0.2	246	6	0	22	30	5	2	0	0	0	stim006_stimuli_original_animals_fish_2.png	C	0	0	0	175.572999714292	175.773024144
153.895	0.2	247	6	0	22	31	0	7	0	0	0	stim001_stimuli_original_animals_birds_1.png	J	0	0	0	175.97303150699	176.173013026244
154.295	0.2	248	6	0	22	32	15	9	0	0	0	stim016_stimuli_original_vehicles_planes_4.png	L	0	0	0	176.373038431164	176.573029702762
154.695	0.2	249	6	0	22	33	3	15	0	0	0	stim004_stimuli_original_animals_birds_4.png	Y	0	0	0	176.773040966829	176.973053693655
155.095	0.2	250	6	0	22	34	8	13	0	0	0	stim009_stimuli_original_vehicles_boats_1.png	U	0	0	0	177.173060325207	177.373065494001
155.495	0.2	251	6	0	22	35	2	14	0	0	0	stim003_stimuli_original_animals_birds_3.png	V	0	0	0	177.573063348536	177.77307119919
164.745	0.2	252	7	1	1	0	3	6	0	0	0	stim004_stimuli_original_animals_birds_4.png	G	0	0	0	186.823317641742	187.023317690473
165.145	0.2	253	7	1	1	1	5	13	0	0	0	stim006_stimuli_original_animals_fish_2.png	U	0	0	0	187.223345045932	187.42333339178
165.545	0.2	254	7	1	1	2	14	12	0	0	0	stim015_stimuli_original_vehicles_planes_3.png	T	0	0	0	187.623338560574	187.823338365532
165.945	0.2	255	7	1	1	3	2	3	0	0	0	stim003_stimuli_original_animals_birds_3.png	D	0	0	0	188.023348410497	188.2233316364
166.345	0.2	256	7	1	1	4	10	7	0	0	0	stim011_stimuli_original_vehicles_boats_3.png	J	0	0	0	188.423334123218	188.623749867082
166.745	0.2	257	7	1	1	5	11	5	0	0	0	stim012_stimuli_original_vehicles_boats_4.png	F	0	0	0	188.823370792205	189.023371816147
167.145	0.2	258	7	1	1	6	15	4	0	0	0	stim016_stimuli_original_vehicles_planes_4.png	E	0	0	0	189.223377716378	189.423384348047
167.545	0.2	259	7	1	1	7	13	14	0	0	0	stim014_stimuli_original_vehicles_planes_2.png	V	0	0	0	189.623393905349	189.823396636057
167.945	0.2	260	7	1	1	8	12	1	0	0	0	stim013_stimuli_original_vehicles_planes_1.png	B	0	0	0	190.023402292398	190.223405998317
168.345	0.2	261	7	1	1	9	0	13	0	1	0	stim001_stimuli_original_animals_birds_1.png	U	0	0	0	190.42341360508	190.623401951045
168.745	0.2	262	7	1	1	10	14	9	1	0	0	stim015_stimuli_original_vehicles_planes_3.png	L	0	0	0	190.823404194089	191.02340985043
169.145	0.2	263	7	1	1	11	8	13	0	1	1	stim009_stimuli_original_vehicles_boats_1.png	U	0	0	0	191.223415750661	191.423438473721
169.545	0.2	264	7	1	1	12	14	15	1	0	0	stim015_stimuli_original_vehicles_planes_3.png	Y	0	0	0	191.623442911077	191.823430769378
169.945	0.2	265	7	1	1	13	6	8	0	0	0	stim007_stimuli_original_animals_fish_3.png	K	NaN	192.015995117952	1	192.023453736212	192.223460855428
170.345	0.2	266	7	1	1	14	4	11	0	0	0	stim005_stimuli_original_animals_fish_1.png	R	0	0	0	192.423464317457	192.623475825298
170.745	0.2	267	7	1	1	15	9	0	0	0	0	stim010_stimuli_original_vehicles_boats_2.png	A	0	0	0	192.823463683599	193.023467877065
171.145	0.2	268	7	1	1	16	1	10	0	0	0	stim002_stimuli_original_animals_birds_2.png	Q	0	0	0	193.223475971608	193.423483578488
171.545	0.2	269	7	1	1	17	7	2	0	0	0	stim008_stimuli_original_animals_fish_4.png	C	0	0	0	193.623491429142	193.823490502662
171.945	0.2	270	7	1	1	18	2	7	0	0	0	stim003_stimuli_original_animals_birds_3.png	J	0	0	0	194.02350249805	194.223500352586
172.345	0.2	271	7	1	1	19	10	1	0	0	0	stim011_stimuli_original_vehicles_boats_3.png	B	0	0	0	194.423515761271	194.623512152932
172.745	0.2	272	7	1	1	20	0	9	0	0	0	stim001_stimuli_original_animals_birds_1.png	L	0	0	0	194.82351585885	195.023523709504
173.145	0.2	273	7	1	1	21	11	4	0	0	0	stim012_stimuli_original_vehicles_boats_4.png	E	0	0	0	195.223532779142	195.42353550985
173.545	0.2	274	7	1	1	22	8	6	0	0	0	stim009_stimuli_original_vehicles_boats_1.png	G	0	0	0	195.623540678644	195.823543896899
173.945	0.2	275	7	1	1	23	15	14	0	1	0	stim016_stimuli_original_vehicles_planes_4.png	V	0	0	0	196.023551747552	196.223555697245
174.345	0.2	276	7	1	1	24	13	8	1	0	0	stim014_stimuli_original_vehicles_planes_2.png	K	0	0	0	196.42357134982	196.623569448129
174.745	0.2	277	7	1	1	25	9	14	0	1	1	stim010_stimuli_original_vehicles_boats_2.png	V	0	0	0	196.823572666384	197.023574909428
175.145	0.2	278	7	1	1	26	13	0	1	0	0	stim014_stimuli_original_vehicles_planes_2.png	A	0	0	0	197.223587636254	197.423586222227
175.545	0.2	279	7	1	1	27	1	12	0	0	0	stim002_stimuli_original_animals_birds_2.png	T	0	0	0	197.62359675474	197.823606312159
175.945	0.2	280	7	1	1	28	14	13	0	0	0	stim015_stimuli_original_vehicles_planes_3.png	U	0	0	0	198.023604166578	198.223606897285
176.345	0.2	281	7	1	1	29	4	15	0	0	0	stim005_stimuli_original_animals_fish_1.png	Y	0	0	0	198.42361840501	198.623620891944
176.745	0.2	282	7	1	1	30	5	11	0	0	0	stim006_stimuli_original_animals_fish_2.png	R	0	0	0	198.823641176918	199.023628303781
177.145	0.2	283	7	1	1	31	7	10	0	0	0	stim008_stimuli_original_animals_fish_4.png	Q	0	0	0	199.223881670507	199.42365448887
177.545	0.2	284	7	1	1	32	3	2	0	0	0	stim004_stimuli_original_animals_birds_4.png	C	0	0	0	199.62365648814	199.823660437833
177.945	0.2	285	7	1	1	33	12	14	0	0	0	stim013_stimuli_original_vehicles_planes_1.png	V	0	0	0	200.023648783681	200.223669068655
178.345	0.2	286	7	1	1	34	13	5	0	0	0	stim014_stimuli_original_vehicles_planes_2.png	F	0	0	0	200.42367789452	200.623683794751
178.745	0.2	287	7	1	1	35	6	3	0	0	0	stim007_stimuli_original_animals_fish_3.png	D	0	0	0	200.823692133068	201.023674871307
183.079	0.2	288	8	0	27	0	14	14	0	0	0	stim015_stimuli_original_vehicles_planes_3.png	V	0	0	0	205.157135911984	205.35713669227
183.479	0.2	289	8	0	27	1	6	6	0	0	0	stim007_stimuli_original_animals_fish_3.png	G	0	0	0	205.557146737236	205.757146785967
183.879	0.2	290	8	0	27	2	5	11	0	0	0	stim006_stimuli_original_animals_fish_2.png	R	0	0	0	205.957177067059	206.157160536852
184.279	0.2	291	8	0	27	3	11	3	0	0	0	stim012_stimuli_original_vehicles_boats_4.png	D	0	0	0	206.35716960649	206.557170386659
184.679	0.2	292	8	0	27	4	8	13	0	0	0	stim009_stimuli_original_vehicles_boats_1.png	U	0	0	0	206.757177018328	206.957179505145
185.079	0.2	293	8	0	27	5	7	4	0	0	0	stim008_stimuli_original_animals_fish_4.png	E	0	0	0	207.157163706259	207.357194962678
185.479	0.2	294	8	0	27	6	5	9	1	0	0	stim006_stimuli_original_animals_fish_2.png	L	0	0	0	207.557202081895	207.757205787813
185.879	0.2	295	8	0	27	7	3	2	0	0	0	stim004_stimuli_original_animals_birds_4.png	C	0	0	0	207.957699063118	208.157220513909
186.279	0.2	296	8	0	27	8	5	1	1	0	1	stim006_stimuli_original_animals_fish_2.png	B	0	0	0	208.357225438813	208.55722816952
186.679	0.2	297	8	0	27	9	13	15	0	0	0	stim014_stimuli_original_vehicles_planes_2.png	Y	0	0	0	208.757231875439	208.957219489967
187.079	0.2	298	8	0	27	10	12	8	0	0	0	stim013_stimuli_original_vehicles_planes_1.png	K	0	0	0	209.157241969137	209.357246650266
187.479	0.2	299	8	0	27	11	0	5	0	0	0	stim001_stimuli_original_animals_birds_1.png	F	0	0	0	209.557253281935	209.75725650019
187.879	0.2	300	8	0	27	12	10	3	0	1	0	stim011_stimuli_original_vehicles_boats_3.png	D	0	0	0	209.95726386318	210.157269519637
188.279	0.2	301	8	0	27	13	1	10	0	0	0	stim002_stimuli_original_animals_birds_2.png	Q	0	0	0	210.357277370291	210.557287902804
188.679	0.2	302	8	0	27	14	4	3	0	1	0	stim005_stimuli_original_animals_fish_1.png	D	0	0	0	210.757269178284	210.957273615641
189.079	0.2	303	8	0	27	15	9	7	0	0	0	stim010_stimuli_original_vehicles_boats_2.png	J	0	0	0	211.157296338701	211.357289316948
189.479	0.2	304	8	0	27	16	2	12	0	0	0	stim003_stimuli_original_animals_birds_3.png	T	0	0	0	211.557308626594	211.757298435434
189.879	0.2	305	8	0	27	17	15	0	0	0	0	stim016_stimuli_original_vehicles_planes_4.png	A	0	0	0	211.957325790776	212.157323157648
190.279	0.2	306	8	0	27	18	0	15	0	0	0	stim001_stimuli_original_animals_birds_1.png	Y	0	0	0	212.357334177825	212.557336664759
190.679	0.2	307	8	0	27	19	12	2	0	0	0	stim013_stimuli_original_vehicles_planes_1.png	C	0	0	0	212.757336957264	212.957343345159
191.079	0.2	308	8	0	27	20	7	9	0	0	0	stim008_stimuli_original_animals_fish_4.png	L	0	0	0	213.157340955804	213.357494848315
191.479	0.2	309	8	0	27	21	3	4	1	0	0	stim004_stimuli_original_animals_birds_4.png	E	0	0	0	213.557333982782	213.757334763068
191.879	0.2	310	8	0	27	22	10	1	0	0	0	stim011_stimuli_original_vehicles_boats_3.png	B	0	0	0	213.957341150846	214.157348026289
192.279	0.2	311	8	0	27	23	3	10	1	0	1	stim004_stimuli_original_animals_birds_4.png	Q	0	0	0	214.357356852153	214.557354219025
192.679	0.2	312	8	0	27	24	5	0	0	0	0	stim006_stimuli_original_animals_fish_2.png	A	0	0	0	214.757374747773	214.957364068949
193.079	0.2	313	8	0	27	25	8	12	0	0	0	stim009_stimuli_original_vehicles_boats_1.png	T	0	0	0	215.157403127174	215.357405126444
193.479	0.2	314	8	0	27	26	15	13	0	0	0	stim016_stimuli_original_vehicles_planes_4.png	U	0	0	0	215.55741492752	215.757420096314
193.879	0.2	315	8	0	27	27	1	5	0	1	0	stim002_stimuli_original_animals_birds_2.png	F	0	0	0	215.957409905037	216.157411660533
194.279	0.2	316	8	0	27	28	2	3	0	0	0	stim003_stimuli_original_animals_birds_3.png	D	0	0	0	216.357417804538	216.557440771372
194.679	0.2	317	8	0	27	29	9	5	0	1	0	stim010_stimuli_original_vehicles_boats_2.png	F	0	0	0	216.757433018181	216.957447451772
195.079	0.2	318	8	0	27	30	4	7	0	0	0	stim005_stimuli_original_animals_fish_1.png	J	0	0	0	217.15745944716	217.357468516915
195.479	0.2	319	8	0	27	31	13	8	0	0	0	stim014_stimuli_original_vehicles_planes_2.png	K	0	0	0	217.557465639897	217.757473246776
195.879	0.2	320	8	0	27	32	3	11	0	0	0	stim004_stimuli_original_animals_birds_4.png	R	0	0	0	217.957461836515	218.157482609036
196.279	0.2	321	8	0	27	33	11	5	0	0	0	stim012_stimuli_original_vehicles_boats_4.png	F	0	0	0	218.357496798737	218.557494897046
196.679	0.2	322	8	0	27	34	6	6	0	0	0	stim007_stimuli_original_animals_fish_3.png	G	0	0	0	218.757513475372	218.957505234517
197.079	0.2	323	8	0	27	35	14	14	0	0	0	stim015_stimuli_original_vehicles_planes_3.png	V	0	0	0	219.157511622412	219.357498017838
200.696	0.2	324	9	1	34	0	15	9	0	0	0	stim016_stimuli_original_vehicles_planes_4.png	L	0	0	0	222.774272204493	222.974280542694
201.096	0.2	325	9	1	34	1	13	13	0	0	0	stim014_stimuli_original_vehicles_planes_2.png	U	0	0	0	223.174279860104	223.374283565907
201.496	0.2	326	9	1	34	2	10	14	0	0	0	stim011_stimuli_original_vehicles_boats_3.png	V	0	0	0	223.574290685239	223.774292684393
201.896	0.2	327	9	1	34	3	4	3	0	0	0	stim005_stimuli_original_animals_fish_1.png	D	0	0	0	223.974300535046	224.174306679051
202.296	0.2	328	9	1	34	4	7	4	0	0	0	stim008_stimuli_original_animals_fish_4.png	E	0	0	0	224.374309409759	224.574318967061
202.696	0.2	329	9	1	34	5	11	10	0	1	0	stim012_stimuli_original_vehicles_boats_4.png	Q	0	0	0	224.774322429206	224.974327598
203.096	0.2	330	9	1	34	6	0	15	0	0	0	stim001_stimuli_original_animals_birds_1.png	Y	0	0	0	225.17433203524	225.374342080206
203.496	0.2	331	9	1	34	7	12	10	0	1	1	stim013_stimuli_original_vehicles_planes_1.png	Q	0	0	0	225.574344810913	225.77434924827
203.896	0.2	332	9	1	34	8	9	6	0	0	0	stim010_stimuli_original_vehicles_boats_2.png	G	0	0	0	225.974355636048	226.174358366639
204.296	0.2	333	9	1	34	9	7	1	1	0	0	stim008_stimuli_original_animals_fish_4.png	B	0	0	0	226.374366704957	226.574369923212
204.696	0.2	334	9	1	34	10	2	5	0	0	0	stim003_stimuli_original_animals_birds_3.png	F	0	0	0	226.774386063451	226.974380504573
205.096	0.2	335	9	1	34	11	7	10	1	0	0	stim008_stimuli_original_animals_fish_4.png	Q	0	0	0	227.174390549539	227.374389866833
205.496	0.2	336	9	1	34	12	1	8	0	0	0	stim002_stimuli_original_animals_birds_2.png	K	0	0	0	227.574396986165	227.774406299577
205.896	0.2	337	9	1	34	13	14	0	0	0	0	stim015_stimuli_original_vehicles_planes_3.png	A	0	0	0	227.974409030285	228.174420781899
206.296	0.2	338	9	1	34	14	5	12	0	0	0	stim006_stimuli_original_animals_fish_2.png	T	0	0	0	228.374423024943	228.574420879479
206.696	0.2	339	9	1	34	15	3	11	0	0	0	stim004_stimuli_original_animals_birds_4.png	R	0	0	0	228.774432143429	228.974436824559
207.096	0.2	340	9	1	34	16	8	7	0	0	0	stim009_stimuli_original_vehicles_boats_1.png	J	0	0	0	229.174437848618	229.374443017296
207.496	0.2	341	9	1	34	17	6	2	0	0	0	stim007_stimuli_original_animals_fish_3.png	C	0	0	0	229.574449648964	229.774453598657
207.896	0.2	342	9	1	34	18	2	6	0	0	0	stim003_stimuli_original_animals_birds_3.png	G	0	0	0	229.974468763568	230.17446344858
208.296	0.2	343	9	1	34	19	7	8	0	0	0	stim008_stimuli_original_animals_fish_4.png	K	0	0	0	230.374471786898	230.574477199465
208.696	0.2	344	9	1	34	20	11	3	0	0	0	stim012_stimuli_original_vehicles_boats_4.png	D	0	0	0	230.774486512877	230.974492900772
209.096	0.2	345	9	1	34	21	12	5	0	0	0	stim013_stimuli_original_vehicles_planes_1.png	F	0	0	0	231.174494656152	231.374495680211
209.496	0.2	346	9	1	34	22	0	14	0	0	0	stim001_stimuli_original_animals_birds_1.png	V	0	0	0	231.574506456498	231.774509430979
209.896	0.2	347	9	1	34	23	8	1	0	0	0	stim009_stimuli_original_vehicles_boats_1.png	B	0	0	0	231.974991247174	232.17452293809
210.296	0.2	348	9	1	34	24	10	7	0	1	0	stim011_stimuli_original_vehicles_boats_3.png	J	0	0	0	232.374528106768	232.574527180404
210.696	0.2	349	9	1	34	25	5	2	0	0	0	stim006_stimuli_original_animals_fish_2.png	C	0	0	0	232.774537712918	232.974539224524
211.096	0.2	350	9	1	34	26	1	7	0	1	1	stim002_stimuli_original_animals_birds_2.png	J	0	0	0	233.174550244701	233.374546880135
211.496	0.2	351	9	1	34	27	6	9	0	0	0	stim007_stimuli_original_animals_fish_3.png	L	0	0	0	233.57455863175	233.774562581442
211.896	0.2	352	9	1	34	28	10	12	1	0	0	stim011_stimuli_original_vehicles_boats_3.png	T	0	0	0	233.974569456885	234.174579258077
212.296	0.2	353	9	1	34	29	15	0	0	0	0	stim016_stimuli_original_vehicles_planes_4.png	A	0	0	0	234.374585889629	234.574580818415
212.696	0.2	354	9	1	34	30	10	11	1	0	0	stim011_stimuli_original_vehicles_boats_3.png	R	0	0	0	234.774591351044	234.974595544511
213.096	0.2	355	9	1	34	31	4	7	0	0	0	stim005_stimuli_original_animals_fish_1.png	J	0	0	0	235.17460022564	235.374602468684
213.496	0.2	356	9	1	34	32	3	4	0	0	0	stim004_stimuli_original_animals_birds_4.png	E	0	0	0	235.574611050775	235.774613293819
213.896	0.2	357	9	1	34	33	14	10	0	0	0	stim015_stimuli_original_vehicles_planes_3.png	Q	0	0	0	235.97462772741	236.174626069493
214.296	0.2	358	9	1	34	34	13	13	0	0	0	stim014_stimuli_original_vehicles_planes_2.png	U	0	0	0	236.374631969607	236.574639332714
214.696	0.2	359	9	1	34	35	9	15	0	0	0	stim010_stimuli_original_vehicles_boats_2.png	Y	0	0	0	236.774643038632	236.974646013114
233.146	0.2	360	10	0	19	0	4	2	0	0	0	stim005_stimuli_original_animals_fish_1.png	C	0	0	0	255.225111445296	255.425141970161
233.546	0.2	361	10	0	19	1	5	12	0	0	0	stim006_stimuli_original_animals_fish_2.png	T	0	0	0	255.625152502791	255.825149381999
233.946	0.2	362	10	0	19	2	9	13	0	0	0	stim010_stimuli_original_vehicles_boats_2.png	U	0	0	0	256.025159914629	256.225161426235
234.346	0.2	363	10	0	19	3	7	3	0	0	0	stim008_stimuli_original_animals_fish_4.png	D	0	0	0	256.42515611113	256.625160060823
234.746	0.2	364	10	0	19	4	12	9	0	0	0	stim013_stimuli_original_vehicles_planes_1.png	L	0	0	0	256.825166936265	257.025187952677
235.146	0.2	365	10	0	19	5	13	15	0	0	0	stim014_stimuli_original_vehicles_planes_2.png	Y	0	0	0	257.225196778541	257.425202922546
235.546	0.2	366	10	0	19	6	8	4	0	0	0	stim009_stimuli_original_vehicles_boats_1.png	E	0	0	0	257.625201996067	257.825205458212
235.946	0.2	367	10	0	19	7	6	1	1	0	0	stim007_stimuli_original_animals_fish_3.png	B	0	0	0	258.025212333654	258.225215064245
236.346	0.2	368	10	0	19	8	3	0	0	0	0	stim004_stimuli_original_animals_birds_4.png	A	0	0	0	258.425222427351	258.625227839919
236.747	0.2	369	10	0	19	9	6	6	1	0	1	stim007_stimuli_original_animals_fish_3.png	G	0	0	0	258.825253976276	259.02523842128
237.146	0.2	370	10	0	19	10	14	11	0	0	0	stim015_stimuli_original_vehicles_planes_3.png	R	0	0	0	259.225229205214	259.425246564439
237.547	0.2	371	10	0	19	11	1	15	0	1	0	stim002_stimuli_original_animals_birds_2.png	Y	0	0	0	259.62525514653	259.825244711479
237.947	0.2	372	10	0	19	12	10	7	0	0	0	stim011_stimuli_original_vehicles_boats_3.png	J	0	0	0	260.025249148835	260.225483254646
238.347	0.2	373	10	0	19	13	0	15	0	1	0	stim001_stimuli_original_animals_birds_1.png	Y	0	0	0	260.425276796799	260.625280258944
238.747	0.2	374	10	0	19	14	11	10	0	0	0	stim012_stimuli_original_vehicles_boats_4.png	Q	0	0	0	260.825297374395	261.025291327853
239.147	0.2	375	10	0	19	15	15	5	0	0	0	stim016_stimuli_original_vehicles_planes_4.png	F	0	0	0	261.225283087115	261.425305566401
239.547	0.2	376	10	0	19	16	2	8	0	0	0	stim003_stimuli_original_animals_birds_3.png	K	0	0	0	261.625308053219	261.8253110277
239.947	0.2	377	10	0	19	17	6	14	0	0	0	stim007_stimuli_original_animals_fish_3.png	V	0	0	0	262.025317415479	262.225310149952
240.347	0.2	378	10	0	19	18	14	6	0	0	0	stim015_stimuli_original_vehicles_planes_3.png	G	0	0	0	262.425327509176	262.625334628392
240.747	0.2	379	10	0	19	19	8	2	0	0	0	stim009_stimuli_original_vehicles_boats_1.png	C	0	0	0	262.825338578201	263.025350573589
241.147	0.2	380	10	0	19	20	5	15	0	0	0	stim006_stimuli_original_animals_fish_2.png	Y	0	0	0	263.225355498493	263.425359448185
241.547	0.2	381	10	0	19	21	10	11	0	0	0	stim011_stimuli_original_vehicles_boats_3.png	R	0	0	0	263.625366079854	263.825369054335
241.947	0.2	382	10	0	19	22	15	0	1	0	0	stim016_stimuli_original_vehicles_planes_4.png	A	0	0	0	264.0253778802	264.225363544188
242.347	0.2	383	10	0	19	23	7	10	0	0	0	stim008_stimuli_original_animals_fish_4.png	Q	0	0	0	264.425370663521	264.625397775089
242.747	0.2	384	10	0	19	24	15	1	1	0	1	stim016_stimuli_original_vehicles_planes_4.png	B	0	0	0	264.825399286696	265.025402017403
243.147	0.2	385	10	0	19	25	11	14	0	0	0	stim012_stimuli_original_vehicles_boats_4.png	V	0	0	0	265.22541571944	265.425415768172
243.547	0.2	386	10	0	19	26	6	6	0	1	0	stim007_stimuli_original_animals_fish_3.png	G	0	0	0	265.625428495114	265.82540343143
243.947	0.2	387	10	0	19	27	0	3	0	0	0	stim001_stimuli_original_animals_birds_1.png	D	0	0	0	266.025407625013	266.225429372746
244.347	0.2	388	10	0	19	28	1	6	0	1	0	stim002_stimuli_original_animals_birds_2.png	G	0	0	0	266.425435760641	266.625441660755
244.747	0.2	389	10	0	19	29	4	8	0	0	0	stim005_stimuli_original_animals_fish_1.png	K	0	0	0	266.825446829549	267.025450047804
245.147	0.2	390	10	0	19	30	15	13	0	0	0	stim016_stimuli_original_vehicles_planes_4.png	U	0	0	0	267.225458386121	267.425460141501
245.547	0.2	391	10	0	19	31	9	12	0	0	0	stim010_stimuli_original_vehicles_boats_2.png	T	0	0	0	267.625470186467	267.825473404722
245.947	0.2	392	10	0	19	32	3	7	0	0	0	stim004_stimuli_original_animals_birds_4.png	J	0	0	0	268.02549685922	268.225483254646
246.347	0.2	393	10	0	19	33	13	9	0	0	0	stim014_stimuli_original_vehicles_planes_2.png	L	0	0	0	268.425488667213	268.625493592233
246.747	0.2	394	10	0	19	34	12	5	0	0	0	stim013_stimuli_original_vehicles_planes_1.png	F	0	0	0	268.825503637083	269.02548856975
247.147	0.2	395	10	0	19	35	2	4	0	0	0	stim003_stimuli_original_animals_birds_3.png	E	0	0	0	269.225509342272	269.425524994847
250.497	0.2	396	11	1	36	0	1	14	0	0	0	stim002_stimuli_original_animals_birds_2.png	V	0	0	0	272.57558750757	272.775588043965
250.897	0.2	397	11	1	36	1	2	8	0	0	0	stim003_stimuli_original_animals_birds_3.png	K	0	0	0	272.975597845041	273.175598137663
251.297	0.2	398	11	1	36	2	12	9	0	0	0	stim013_stimuli_original_vehicles_planes_1.png	L	0	0	0	273.375600380707	273.575599454227
251.697	0.2	399	11	1	36	3	5	13	0	0	0	stim006_stimuli_original_animals_fish_2.png	U	0	0	0	273.77563656203	273.975635391776
252.097	0.2	400	11	1	36	4	4	10	0	0	0	stim005_stimuli_original_animals_fish_1.png	Q	0	0	0	274.175627882476	274.375673767412
252.497	0.2	401	11	1	36	5	12	11	1	0	0	stim013_stimuli_original_vehicles_planes_1.png	R	0	0	0	274.575654799002	274.775657773484
252.897	0.2	402	11	1	36	6	10	1	0	0	0	stim011_stimuli_original_vehicles_boats_3.png	B	0	0	0	274.975664161262	275.175673718564
253.297	0.2	403	11	1	36	7	12	15	1	0	0	stim013_stimuli_original_vehicles_planes_1.png	Y	0	0	0	275.375677424483	275.575677229441
253.697	0.2	404	11	1	36	8	13	6	0	1	0	stim014_stimuli_original_vehicles_planes_2.png	G	0	0	0	275.775690687704	275.975671231747
254.097	0.2	405	11	1	36	9	9	12	0	0	0	stim010_stimuli_original_vehicles_boats_2.png	T	0	0	0	276.175679570064	276.375684738741
254.497	0.2	406	11	1	36	10	8	6	0	1	1	stim009_stimuli_original_vehicles_boats_1.png	G	0	0	0	276.575710143778	276.775716531556
254.897	0.2	407	11	1	36	11	0	7	0	0	0	stim001_stimuli_original_animals_birds_1.png	J	0	0	0	276.9757187746	277.175704682362
255.297	0.2	408	11	1	36	12	11	5	0	0	0	stim012_stimuli_original_vehicles_boats_4.png	F	0	0	0	277.375711801578	277.575732330326
255.697	0.2	409	11	1	36	13	3	6	0	0	0	stim004_stimuli_original_animals_birds_4.png	G	0	0	0	277.77574042487	277.975744130788
256.097	0.2	410	11	1	36	14	6	4	0	0	0	stim007_stimuli_original_animals_fish_3.png	E	0	0	0	278.175749055692	278.375747154001
256.497	0.2	411	11	1	36	15	7	3	0	0	0	stim008_stimuli_original_animals_fish_4.png	D	0	0	0	278.576125838794	278.775774801965
256.897	0.2	412	11	1	36	16	14	2	0	0	0	stim015_stimuli_original_vehicles_planes_3.png	C	0	0	0	278.975770705962	279.175772705232
257.297	0.2	413	11	1	36	17	15	0	0	0	0	stim016_stimuli_original_vehicles_planes_4.png	A	0	0	0	279.37578494451	279.575786456116
257.697	0.2	414	11	1	36	18	0	15	0	0	0	stim001_stimuli_original_animals_birds_1.png	Y	0	0	0	279.775790893356	279.975799231674
258.097	0.2	415	11	1	36	19	2	14	0	0	0	stim003_stimuli_original_animals_birds_3.png	V	0	0	0	280.17580366903	280.375803717761
258.497	0.2	416	11	1	36	20	3	7	0	0	0	stim004_stimuli_original_animals_birds_4.png	J	0	0	0	280.575815713266	280.775800158153
258.897	0.2	417	11	1	36	21	4	6	0	0	0	stim005_stimuli_original_animals_fish_1.png	G	0	0	0	280.975808252697	281.175826099468
259.297	0.2	418	11	1	36	22	6	3	0	0	0	stim007_stimuli_original_animals_fish_3.png	D	0	0	0	281.375823710114	281.575836924603
259.697	0.2	419	11	1	36	23	5	11	0	0	0	stim006_stimuli_original_animals_fish_2.png	R	0	0	0	281.775844775257	281.975860671722
260.097	0.2	420	11	1	36	24	7	0	0	0	0	stim008_stimuli_original_animals_fish_4.png	A	0	0	0	282.175849749008	282.375856868224
260.497	0.2	421	11	1	36	25	6	8	1	0	0	stim007_stimuli_original_animals_fish_3.png	K	0	0	0	282.575870082714	282.775866718148
260.897	0.2	422	11	1	36	26	12	9	0	0	0	stim013_stimuli_original_vehicles_planes_1.png	L	0	0	0	282.975876763114	283.175875836634
261.297	0.2	423	11	1	36	27	6	13	1	0	0	stim007_stimuli_original_animals_fish_3.png	U	0	0	0	283.375887832022	283.57589031884
261.697	0.2	424	11	1	36	28	15	12	0	1	0	stim016_stimuli_original_vehicles_planes_4.png	T	0	0	0	283.775898657157	283.976201273501
262.097	0.2	425	11	1	36	29	1	10	0	0	0	stim002_stimuli_original_animals_birds_2.png	Q	0	0	0	284.175909482292	284.375908799702
262.497	0.2	426	11	1	36	30	11	12	0	1	1	stim012_stimuli_original_vehicles_boats_4.png	T	0	0	0	284.575919819879	284.775919624837
262.897	0.2	427	11	1	36	31	10	4	0	0	0	stim011_stimuli_original_vehicles_boats_3.png	E	NaN	284.968481047661	1	284.975928206928	285.175931425183
263.297	0.2	428	11	1	36	32	13	5	0	0	0	stim014_stimuli_original_vehicles_planes_2.png	F	0	0	0	285.375937569188	285.575942494092
263.697	0.2	429	11	1	36	33	9	12	0	0	0	stim010_stimuli_original_vehicles_boats_2.png	T	0	0	0	285.775951563846	285.975949905929
264.097	0.2	430	11	1	36	34	8	2	0	0	0	stim009_stimuli_original_vehicles_boats_1.png	C	0	0	0	286.175957025145	286.375962925376
264.497	0.2	431	11	1	36	35	14	1	0	0	0	stim015_stimuli_original_vehicles_planes_3.png	B	0	0	0	286.575970288366	286.775979114347
267.247	0.2	432	12	0	44	0	13	5	0	0	0	stim014_stimuli_original_vehicles_planes_2.png	F	0	0	0	289.326052695978	289.526035678107
267.647	0.2	433	12	0	44	1	10	6	0	0	0	stim011_stimuli_original_vehicles_boats_3.png	G	0	0	0	289.726056694402	289.926064788946
268.047	0.2	434	12	0	44	2	12	2	0	0	0	stim013_stimuli_original_vehicles_planes_1.png	C	0	0	0	290.126065812889	290.326056109276
268.447	0.2	435	12	0	44	3	0	3	0	0	0	stim001_stimuli_original_animals_birds_1.png	D	0	0	0	290.526079563773	290.726083269692
268.847	0.2	436	12	0	44	4	1	7	0	0	0	stim002_stimuli_original_animals_birds_2.png	J	0	0	0	290.926087219384	291.126540266094
269.247	0.2	437	12	0	44	5	5	4	0	0	0	stim006_stimuli_original_animals_fish_2.png	E	0	0	0	291.326082684565	291.526090535219
269.647	0.2	438	12	0	44	6	15	0	0	0	0	stim016_stimuli_original_vehicles_planes_4.png	A	0	0	0	291.726084488677	291.926098678494
270.047	0.2	439	12	0	44	7	9	2	0	1	0	stim010_stimuli_original_vehicles_boats_2.png	C	0	0	0	292.126121645328	292.326123400708
270.447	0.2	440	12	0	44	8	6	9	0	0	0	stim007_stimuli_original_animals_fish_3.png	L	0	0	0	292.526133445674	292.726133250631
270.847	0.2	441	12	0	44	9	4	2	1	1	0	stim005_stimuli_original_animals_fish_1.png	C	0	0	0	292.926133787027	293.126129447133
271.247	0.2	442	12	0	44	10	14	10	0	0	0	stim015_stimuli_original_vehicles_planes_3.png	Q	0	0	0	293.326152414083	293.526161727612
271.647	0.2	443	12	0	44	11	4	8	1	0	1	stim005_stimuli_original_animals_fish_1.png	K	0	0	0	293.726160069695	293.926139150863
272.047	0.2	444	12	0	44	12	11	14	0	0	0	stim012_stimuli_original_vehicles_boats_4.png	V	0	0	0	294.12615675386	294.326147537795
272.447	0.2	445	12	0	44	13	3	11	0	0	0	stim004_stimuli_original_animals_birds_4.png	R	0	0	0	294.526154900901	294.726174941985
272.847	0.2	446	12	0	44	14	7	12	0	0	0	stim008_stimuli_original_animals_fish_4.png	T	0	0	0	294.926185962162	295.126195031917
273.247	0.2	447	12	0	44	15	4	1	0	0	0	stim005_stimuli_original_animals_fish_1.png	B	0	0	0	295.326192398788	295.526181476074
273.647	0.2	448	12	0	44	16	2	13	0	0	0	stim003_stimuli_original_animals_birds_3.png	U	0	0	0	295.726185669657	295.926187425037
274.047	0.2	449	12	0	44	17	8	15	0	0	0	stim009_stimuli_original_vehicles_boats_1.png	Y	0	0	0	296.12619527569	296.326198250172
274.447	0.2	450	12	0	44	18	15	8	0	0	0	stim016_stimuli_original_vehicles_planes_4.png	K	0	0	0	296.526240721811	296.726241258206
274.847	0.2	451	12	0	44	19	13	2	0	0	0	stim014_stimuli_original_vehicles_planes_2.png	C	0	0	0	296.926251790719	297.126249401481
275.247	0.2	452	12	0	44	20	1	4	0	0	0	stim002_stimuli_original_animals_birds_2.png	E	0	0	0	297.326252132072	297.526254619006
275.647	0.2	453	12	0	44	21	12	7	0	0	0	stim013_stimuli_original_vehicles_planes_1.png	J	0	0	0	297.726260762895	297.926271539298
276.047	0.2	454	12	0	44	22	11	3	0	0	0	stim012_stimuli_original_vehicles_boats_4.png	D	0	0	0	298.126269881381	298.326272855862
276.447	0.2	455	12	0	44	23	14	11	0	0	0	stim015_stimuli_original_vehicles_planes_3.png	R	0	0	0	298.52629070275	298.726295871544
276.847	0.2	456	12	0	44	24	8	4	0	1	0	stim009_stimuli_original_vehicles_boats_1.png	E	0	0	0	298.926307623158	299.126287679537
277.247	0.2	457	12	0	44	25	10	14	0	0	0	stim011_stimuli_original_vehicles_boats_3.png	V	0	0	0	299.326314303558	299.526316546602
277.647	0.2	458	12	0	44	26	2	4	1	1	0	stim003_stimuli_original_animals_birds_3.png	E	0	0	0	299.726322202943	299.926336636418
278.047	0.2	459	12	0	44	27	9	6	0	0	0	stim010_stimuli_original_vehicles_boats_2.png	G	0	0	0	300.126332784304	300.326346974005
278.447	0.2	460	12	0	44	28	2	9	1	0	1	stim003_stimuli_original_animals_birds_3.png	L	0	0	0	300.526342390338	300.726350972429
278.847	0.2	461	12	0	44	29	0	15	0	0	0	stim001_stimuli_original_animals_birds_1.png	Y	NaN	300.91891605244	1	300.926359066973	301.126346925157
279.247	0.2	462	12	0	44	30	4	5	0	0	0	stim005_stimuli_original_animals_fish_1.png	F	0	0	0	301.326364772045	301.526370672276
279.648	0.2	463	12	0	44	31	7	1	0	0	0	stim008_stimuli_original_animals_fish_4.png	B	0	0	0	301.726843711338	301.926383935497
280.048	0.2	464	12	0	44	32	3	0	0	0	0	stim004_stimuli_original_animals_birds_4.png	A	0	0	0	302.126388372853	302.326377450139
280.448	0.2	465	12	0	44	33	2	12	0	0	0	stim003_stimuli_original_animals_birds_3.png	T	0	0	0	302.52639749134	302.726401684806
280.848	0.2	466	12	0	44	34	6	10	0	0	0	stim007_stimuli_original_animals_fish_3.png	Q	0	0	0	302.926411973545	303.126412509941
281.248	0.2	467	12	0	44	35	5	13	0	0	0	stim006_stimuli_original_animals_fish_2.png	U	0	0	0	303.326417434844	303.526420165552
283.264	0.2	468	13	1	14	0	10	1	0	0	0	stim011_stimuli_original_vehicles_boats_3.png	B	0	0	0	305.343140567769	305.543126963312
283.664	0.2	469	13	1	14	1	12	6	0	0	0	stim013_stimuli_original_vehicles_planes_1.png	G	0	0	0	305.743148467271	305.943155586487
284.064	0.2	470	13	1	14	2	5	8	0	0	0	stim006_stimuli_original_animals_fish_2.png	K	0	0	0	306.14314271335	306.343143249745
284.464	0.2	471	13	1	14	3	13	12	0	0	0	stim014_stimuli_original_vehicles_planes_2.png	T	0	0	0	306.543170848978	306.743175773881
284.864	0.2	472	13	1	14	4	7	9	0	0	0	stim008_stimuli_original_animals_fish_4.png	L	0	0	0	306.943188988371	307.143188305665
285.264	0.2	473	13	1	14	5	5	3	1	1	0	stim006_stimuli_original_animals_fish_2.png	D	0	0	0	307.343187623075	307.543190597557
285.664	0.2	474	13	1	14	6	6	10	0	0	0	stim007_stimuli_original_animals_fish_3.png	Q	0	0	0	307.743198691984	307.943202885566
286.065	0.2	475	13	1	14	7	5	3	1	1	1	stim006_stimuli_original_animals_fish_2.png	D	0	0	0	308.143503307481	308.343216148787
286.464	0.2	476	13	1	14	8	2	11	0	0	0	stim003_stimuli_original_animals_birds_3.png	R	0	0	0	308.543219123268	308.743216733914
286.864	0.2	477	13	1	14	9	0	15	0	0	0	stim001_stimuli_original_animals_birds_1.png	Y	0	0	0	308.943227997865	309.14323146001
287.264	0.2	478	13	1	14	10	4	3	0	0	0	stim005_stimuli_original_animals_fish_1.png	D	0	0	0	309.343238091562	309.543239847058
287.664	0.2	479	13	1	14	11	1	14	0	0	0	stim002_stimuli_original_animals_birds_2.png	V	0	0	0	309.743247941486	309.943252622616
288.064	0.2	480	13	1	14	12	15	0	0	0	0	stim016_stimuli_original_vehicles_planes_4.png	A	0	0	0	310.143256084761	310.343265642063
288.464	0.2	481	13	1	14	13	11	7	0	0	0	stim012_stimuli_original_vehicles_boats_4.png	J	0	0	0	310.543272517505	310.743277930073
288.864	0.2	482	13	1	14	14	8	5	0	0	0	stim009_stimuli_original_vehicles_boats_1.png	F	0	0	0	310.943279685453	311.143290461856
289.264	0.2	483	13	1	14	15	3	2	0	0	0	stim004_stimuli_original_animals_birds_4.png	C	0	0	0	311.343291729689	311.543295679381
289.664	0.2	484	13	1	14	16	9	4	0	0	0	stim010_stimuli_original_vehicles_boats_2.png	E	0	0	0	311.743300848175	311.943302847329
290.064	0.2	485	13	1	14	17	14	13	0	0	0	stim015_stimuli_original_vehicles_planes_3.png	U	0	0	0	312.143319475232	312.34331342869
290.464	0.2	486	13	1	14	18	13	14	0	0	0	stim014_stimuli_original_vehicles_planes_2.png	V	0	0	0	312.543322498444	312.743323766277
290.864	0.2	487	13	1	14	19	4	9	0	0	0	stim005_stimuli_original_animals_fish_1.png	L	0	0	0	312.943322839797	313.143326301826
291.265	0.2	488	13	1	14	20	2	3	0	0	0	stim003_stimuli_original_animals_birds_3.png	D	NaN	313.335917469463	0	313.343553337152	313.543360776501
291.664	0.2	489	13	1	14	21	5	8	0	0	0	stim006_stimuli_original_animals_fish_2.png	K	0	0	0	313.743357168161	313.943356241682
292.064	0.2	490	13	1	14	22	7	11	0	0	0	stim008_stimuli_original_animals_fish_4.png	R	0	0	0	314.143366530421	314.34335487627
292.464	0.2	491	13	1	14	23	0	15	0	0	0	stim001_stimuli_original_animals_birds_1.png	Y	0	0	0	314.543373942259	314.743377648178
292.864	0.2	492	13	1	14	24	14	1	0	0	0	stim015_stimuli_original_vehicles_planes_3.png	B	0	0	0	314.943388668355	315.143389204633
293.264	0.2	493	13	1	14	25	3	4	0	0	0	stim004_stimuli_original_animals_birds_4.png	E	0	0	0	315.343397786724	315.543406125042
293.664	0.2	494	13	1	14	26	15	0	0	0	0	stim016_stimuli_original_vehicles_planes_4.png	A	0	0	0	315.743404223351	315.94343523588
294.065	0.2	495	13	1	14	27	11	2	0	0	0	stim012_stimuli_original_vehicles_boats_4.png	C	0	0	0	316.143419680884	316.343422411475
294.465	0.2	496	13	1	14	28	3	5	1	1	0	stim004_stimuli_original_animals_birds_4.png	F	0	0	0	316.54342879937	316.743430798524
294.865	0.2	497	13	1	14	29	10	6	0	0	0	stim011_stimuli_original_vehicles_boats_3.png	G	0	0	0	316.943437186419	317.143448206596
295.265	0.2	498	13	1	14	30	3	5	1	1	1	stim004_stimuli_original_animals_birds_4.png	F	0	0	0	317.343454594375	317.543451473583
295.665	0.2	499	13	1	14	31	9	7	0	0	0	stim010_stimuli_original_vehicles_boats_2.png	J	NaN	317.935231779818	1	317.743461518548	317.943480584421
296.065	0.2	500	13	1	14	32	12	13	0	0	0	stim013_stimuli_original_vehicles_planes_1.png	U	0	0	0	318.143479170394	318.343484095298
296.465	0.2	501	13	1	14	33	8	5	0	0	0	stim009_stimuli_original_vehicles_boats_1.png	F	0	0	0	318.5434936526	318.74376944988
296.865	0.2	502	13	1	14	34	6	12	0	0	0	stim007_stimuli_original_animals_fish_3.png	T	0	0	0	318.94350594061	319.143507696106
297.265	0.2	503	13	1	14	35	1	10	0	0	0	stim002_stimuli_original_animals_birds_2.png	Q	0	0	0	319.343510182924	319.543514132616
299.748	0.2	504	14	0	15	0	2	11	0	0	0	stim003_stimuli_original_animals_birds_3.png	R	0	0	0	321.826894326136	322.026896812953
300.148	0.2	505	14	0	15	1	15	2	0	0	0	stim016_stimuli_original_vehicles_planes_4.png	C	0	0	0	322.226900518872	322.426901786705
300.548	0.2	506	14	0	15	2	14	5	0	0	0	stim015_stimuli_original_vehicles_planes_3.png	F	0	0	0	322.626931580249	322.826938455692
300.948	0.2	507	14	0	15	3	3	4	0	0	0	stim004_stimuli_original_animals_birds_4.png	E	0	0	0	323.026946062455	323.226946355077
301.348	0.2	508	14	0	15	4	11	6	0	0	0	stim012_stimuli_original_vehicles_boats_4.png	G	0	0	0	323.426958106691	323.626961568836
301.748	0.2	509	14	0	15	5	10	9	0	0	0	stim011_stimuli_original_vehicles_boats_3.png	L	0	0	0	323.826956253732	324.026957765338
302.148	0.2	510	14	0	15	6	3	8	1	0	0	stim004_stimuli_original_animals_birds_4.png	K	0	0	0	324.226965615992	324.42698736384
302.548	0.2	511	14	0	15	7	4	1	0	0	0	stim005_stimuli_original_animals_fish_1.png	B	0	0	0	324.626994239283	324.8269967261
302.948	0.2	512	14	0	15	8	3	12	1	0	1	stim004_stimuli_original_animals_birds_4.png	T	NaN	325.019547421369	1	325.026987753925	325.227006819798
303.349	0.2	513	14	0	15	9	13	15	0	0	0	stim014_stimuli_original_vehicles_planes_2.png	Y	0	0	0	325.427483028383	325.627026665956
303.748	0.2	514	14	0	15	10	0	7	0	0	0	stim001_stimuli_original_animals_birds_1.png	J	0	0	0	325.827027689898	326.027015548199
304.148	0.2	515	14	0	15	11	1	3	0	0	0	stim002_stimuli_original_animals_birds_2.png	D	0	0	0	326.227033638861	326.427020765725
304.548	0.2	516	14	0	15	12	8	1	0	1	0	stim009_stimuli_original_vehicles_boats_1.png	B	0	0	0	326.627038124949	326.827045488055
304.948	0.2	517	14	0	15	13	5	13	0	0	0	stim006_stimuli_original_animals_fish_2.png	U	0	0	0	327.027049437747	327.227037296048
305.348	0.2	518	14	0	15	14	12	1	0	1	0	stim013_stimuli_original_vehicles_planes_1.png	B	0	0	0	327.427059043781	327.627066162997
305.748	0.2	519	14	0	15	15	6	10	0	0	0	stim007_stimuli_original_animals_fish_3.png	Q	0	0	0	327.827074745088	328.027093811077
306.148	0.2	520	14	0	15	16	7	14	0	0	0	stim008_stimuli_original_animals_fish_4.png	V	0	0	0	328.227083132137	328.42708537518
306.548	0.2	521	14	0	15	17	9	0	0	0	0	stim010_stimuli_original_vehicles_boats_2.png	A	0	0	0	328.627096883021	328.827102295589
306.948	0.2	522	14	0	15	18	0	9	0	0	0	stim001_stimuli_original_animals_birds_1.png	L	0	0	0	329.027104050969	329.227106050239
307.348	0.2	523	14	0	15	19	14	7	0	0	0	stim015_stimuli_original_vehicles_planes_3.png	J	0	0	0	329.427124628564	329.627120044897
307.748	0.2	524	14	0	15	20	10	6	0	0	0	stim011_stimuli_original_vehicles_boats_3.png	G	0	0	0	329.82712984609	330.027101612883
308.148	0.2	525	14	0	15	21	1	12	1	0	0	stim002_stimuli_original_animals_birds_2.png	T	0	0	0	330.227105075028	330.427109268494
308.548	0.2	526	14	0	15	22	13	5	0	0	0	stim014_stimuli_original_vehicles_planes_2.png	F	0	0	0	330.627114437288	330.827331476496
308.948	0.2	527	14	0	15	23	1	8	1	0	1	stim002_stimuli_original_animals_birds_2.png	K	0	0	0	331.027159395744	331.227159200702
309.348	0.2	528	14	0	15	24	3	1	0	0	0	stim004_stimuli_original_animals_birds_4.png	B	NaN	331.419731351198	1	331.427141451393	331.627145644859
309.748	0.2	529	14	0	15	25	7	0	0	0	0	stim008_stimuli_original_animals_fish_4.png	A	0	0	0	331.827146181255	332.02715232526
310.148	0.2	530	14	0	15	26	15	13	0	0	0	stim016_stimuli_original_vehicles_planes_4.png	U	0	0	0	332.227159444476	332.42715900566
310.548	0.2	531	14	0	15	27	12	3	0	1	0	stim013_stimuli_original_vehicles_planes_1.png	D	0	0	0	332.627167343977	332.827171781333
310.948	0.2	532	14	0	15	28	1	4	0	0	0	stim002_stimuli_original_animals_birds_2.png	E	0	0	0	333.027214252856	333.227212594938
311.348	0.2	533	14	0	15	29	8	3	0	1	0	stim009_stimuli_original_vehicles_boats_1.png	D	0	0	0	333.427205573302	333.627229027683
311.748	0.2	534	14	0	15	30	9	10	0	0	0	stim010_stimuli_original_vehicles_boats_2.png	Q	0	0	0	333.827231514617	334.027227662387
312.148	0.2	535	14	0	15	31	6	11	0	0	0	stim007_stimuli_original_animals_fish_3.png	R	0	0	0	334.22721673979	334.427214594209
312.548	0.2	536	14	0	15	32	4	3	0	0	0	stim005_stimuli_original_animals_fish_1.png	D	0	0	0	334.627222688752	334.827224444132
312.948	0.2	537	14	0	15	33	5	14	0	0	0	stim006_stimuli_original_animals_fish_2.png	V	0	0	0	335.027231563348	335.227255017846
313.348	0.2	538	14	0	15	34	2	15	0	0	0	stim003_stimuli_original_animals_birds_3.png	Y	0	0	0	335.427244339022	335.627246338176
313.748	0.2	539	14	0	15	35	11	2	0	0	0	stim012_stimuli_original_vehicles_boats_4.png	C	0	0	0	335.827253701282	336.027259357623
315.882	0.2	540	15	1	21	0	1	12	0	0	0	stim002_stimuli_original_animals_birds_2.png	T	0	0	0	337.960661347723	338.160685289768
316.282	0.2	541	15	1	21	1	14	5	0	0	0	stim015_stimuli_original_vehicles_planes_3.png	F	0	0	0	338.360693384311	338.560690507293
316.682	0.2	542	15	1	21	2	4	0	0	0	0	stim005_stimuli_original_animals_fish_1.png	A	0	0	0	338.76070152747	338.960697431467
317.082	0.2	543	15	1	21	3	2	3	0	0	0	stim003_stimuli_original_animals_birds_3.png	D	0	0	0	339.160706501221	339.360710450914
317.482	0.2	544	15	1	21	4	13	14	0	0	0	stim014_stimuli_original_vehicles_planes_2.png	V	0	0	0	339.56071781402	339.760723714135
317.882	0.2	545	15	1	21	5	10	10	0	0	0	stim011_stimuli_original_vehicles_boats_3.png	Q	0	0	0	339.960734734312	340.160732344957
318.282	0.2	546	15	1	21	6	6	4	0	0	0	stim007_stimuli_original_animals_fish_3.png	E	0	0	0	340.360741658485	340.560742926318
318.682	0.2	547	15	1	21	7	11	2	0	0	0	stim012_stimuli_original_vehicles_boats_4.png	C	0	0	0	340.760756628471	340.960807633353
319.082	0.2	548	15	1	21	8	5	9	0	0	0	stim006_stimuli_original_animals_fish_2.png	L	0	0	0	341.160759651684	341.360773353721
319.482	0.2	549	15	1	21	9	1	7	1	0	0	stim002_stimuli_original_animals_birds_2.png	J	0	0	0	341.560770233045	341.760774914175
319.882	0.2	550	15	1	21	10	12	15	0	0	0	stim013_stimuli_original_vehicles_planes_1.png	Y	0	0	0	341.960781545728	342.160786226857
320.282	0.2	551	15	1	21	11	1	5	1	1	0	stim002_stimuli_original_animals_birds_2.png	F	0	0	0	342.360792127089	342.560799246305
320.682	0.2	552	15	1	21	12	8	11	0	0	0	stim009_stimuli_original_vehicles_boats_1.png	R	0	0	0	342.760809535044	342.960811534314
321.082	0.2	553	15	1	21	13	0	5	0	1	1	stim001_stimuli_original_animals_birds_1.png	F	0	0	0	343.160796710756	343.360801879433
321.482	0.2	554	15	1	21	14	3	1	0	0	0	stim004_stimuli_original_animals_birds_4.png	B	0	0	0	343.560811436735	343.760831234162
321.882	0.2	555	15	1	21	15	7	8	0	0	0	stim008_stimuli_original_animals_fish_4.png	K	NaN	343.953383879852	1	343.960824943846	344.160828893539
322.282	0.2	556	15	1	21	16	9	13	0	0	0	stim010_stimuli_original_vehicles_boats_2.png	U	0	0	0	344.360836012755	344.560840937775
322.682	0.2	557	15	1	21	17	15	6	0	0	0	stim016_stimuli_original_vehicles_planes_4.png	G	0	0	0	344.760847569327	344.960850300035
323.082	0.2	558	15	1	21	18	6	15	0	0	0	stim007_stimuli_original_animals_fish_3.png	Y	0	0	0	345.160863514524	345.360859662294
323.482	0.2	559	15	1	21	19	13	9	0	0	0	stim014_stimuli_original_vehicles_planes_2.png	L	0	0	0	345.560870194924	345.76087438839
323.882	0.2	560	15	1	21	20	8	7	0	0	0	stim009_stimuli_original_vehicles_boats_1.png	J	0	0	0	345.960863465676	346.160861807875
324.282	0.2	561	15	1	21	21	1	3	0	0	0	stim002_stimuli_original_animals_birds_2.png	D	0	0	0	346.360868683201	346.560910667176
324.682	0.2	562	15	1	21	22	5	0	1	0	0	stim006_stimuli_original_animals_fish_2.png	A	0	0	0	346.760913641658	346.960911496193
325.082	0.2	563	15	1	21	23	11	8	0	0	0	stim012_stimuli_original_vehicles_boats_4.png	K	0	0	0	347.160921784933	347.360923052765
325.482	0.2	564	15	1	21	24	5	1	1	1	0	stim006_stimuli_original_animals_fish_2.png	B	0	0	0	347.560930903419	347.760943630245
325.882	0.2	565	15	1	21	25	15	12	0	0	0	stim016_stimuli_original_vehicles_planes_4.png	T	0	0	0	347.960947823827	348.160944703035
326.282	0.2	566	15	1	21	26	7	1	0	1	1	stim008_stimuli_original_animals_fish_4.png	B	0	0	0	348.360936949844	348.560961623443
326.682	0.2	567	15	1	21	27	9	5	0	0	0	stim010_stimuli_original_vehicles_boats_2.png	F	0	0	0	348.760965329362	348.960965865641
327.082	0.2	568	15	1	21	28	2	11	0	0	0	stim003_stimuli_original_animals_birds_3.png	R	0	0	0	349.16097249731	349.360961574595
327.482	0.2	569	15	1	21	29	4	6	0	0	0	stim005_stimuli_original_animals_fish_1.png	G	0	0	0	349.560984541546	349.760989710223
327.882	0.2	570	15	1	21	30	10	10	0	0	0	stim011_stimuli_original_vehicles_boats_3.png	Q	0	0	0	349.96099512279	350.160980786779
328.282	0.2	571	15	1	21	31	14	13	0	0	0	stim015_stimuli_original_vehicles_planes_3.png	U	0	0	0	350.361013506074	350.561007215758
328.682	0.2	572	15	1	21	32	3	2	0	0	0	stim004_stimuli_original_animals_birds_4.png	C	0	0	0	350.761016285513	350.961004387587
329.082	0.2	573	15	1	21	33	0	4	0	0	0	stim001_stimuli_original_animals_birds_1.png	E	0	0	0	351.161010775366	351.361029841239
329.482	0.2	574	15	1	21	34	5	14	0	0	0	stim006_stimuli_original_animals_fish_2.png	V	0	0	0	351.561022575712	351.761050662608
329.882	0.2	575	15	1	21	35	12	1	0	0	0	stim013_stimuli_original_vehicles_planes_1.png	B	0	0	0	351.96104802948	352.161051003961
332.815	0.2	576	16	0	20	0	12	12	0	0	0	stim013_stimuli_original_vehicles_planes_1.png	T	0	0	0	354.894457333838	355.094461039756
333.215	0.2	577	16	0	20	1	11	14	0	0	0	stim012_stimuli_original_vehicles_boats_4.png	V	0	0	0	355.294478642754	355.494472352439
333.615	0.2	578	16	0	20	2	6	1	0	0	0	stim007_stimuli_original_animals_fish_3.png	B	0	0	0	355.69447557081	355.894481714815
334.015	0.2	579	16	0	20	3	0	11	0	0	0	stim001_stimuli_original_animals_birds_1.png	R	0	0	0	356.094489321578	356.294493758935
334.415	0.2	580	16	0	20	4	10	13	1	0	0	stim011_stimuli_original_vehicles_boats_3.png	U	0	0	0	356.494503316237	356.694505559281
334.815	0.2	581	16	0	20	5	15	10	0	0	0	stim016_stimuli_original_vehicles_planes_4.png	Q	0	0	0	356.894509752863	357.094510776806
335.215	0.2	582	16	0	20	6	10	3	1	0	1	stim011_stimuli_original_vehicles_boats_3.png	D	0	0	0	357.294521796983	357.494521601941
335.615	0.2	583	16	0	20	7	7	7	0	0	0	stim008_stimuli_original_animals_fish_4.png	J	0	0	0	357.69451994414	357.894520968082
336.015	0.2	584	16	0	20	8	8	5	0	0	0	stim009_stimuli_original_vehicles_boats_1.png	F	0	0	0	358.09454710444	358.294533743756
336.416	0.2	585	16	0	20	9	5	11	0	1	0	stim006_stimuli_original_animals_fish_2.png	R	0	0	0	358.494557685801	358.694582846947
336.816	0.2	586	16	0	20	10	10	8	0	0	0	stim011_stimuli_original_vehicles_boats_3.png	K	0	0	0	358.894549493794	359.094579043449
337.216	0.2	587	16	0	20	11	9	11	0	1	0	stim010_stimuli_original_vehicles_boats_2.png	R	0	0	0	359.294580067508	359.494580116239
337.616	0.2	588	16	0	20	12	4	9	0	0	0	stim005_stimuli_original_animals_fish_1.png	L	0	0	0	359.694588454557	359.894590209937
338.016	0.2	589	16	0	20	13	2	4	0	0	0	stim003_stimuli_original_animals_birds_3.png	E	0	0	0	360.094604155864	360.294586650329
338.416	0.2	590	16	0	20	14	13	6	0	0	0	stim014_stimuli_original_vehicles_planes_2.png	G	0	0	0	360.495102112298	360.694592111628
338.816	0.2	591	16	0	20	15	1	2	0	0	0	stim002_stimuli_original_animals_birds_2.png	C	0	0	0	360.894594110898	361.094608544488
339.216	0.2	592	16	0	20	16	14	0	0	0	0	stim015_stimuli_original_vehicles_planes_3.png	A	0	0	0	361.294606642681	361.494622051483
339.616	0.2	593	16	0	20	17	3	15	0	0	0	stim004_stimuli_original_animals_birds_4.png	Y	0	0	0	361.694648431614	361.894628731883
340.016	0.2	594	16	0	20	18	15	3	0	0	0	stim016_stimuli_original_vehicles_planes_4.png	D	0	0	0	362.094652430154	362.294653941761
340.416	0.2	595	16	0	20	19	0	14	0	0	0	stim001_stimuli_original_animals_birds_1.png	V	0	0	0	362.494667643798	362.694664035458
340.816	0.2	596	16	0	20	20	2	1	0	0	0	stim003_stimuli_original_animals_birds_3.png	B	0	0	0	362.894676274736	363.094660719624
341.216	0.2	597	16	0	20	21	6	13	0	0	0	stim007_stimuli_original_animals_fish_3.png	U	0	0	0	363.294670276926	363.4946964134
341.616	0.2	598	16	0	20	22	4	2	0	0	0	stim005_stimuli_original_animals_fish_1.png	C	0	0	0	363.694696218357	363.894698705175
342.016	0.2	599	16	0	20	23	9	4	0	0	0	stim010_stimuli_original_vehicles_boats_2.png	E	0	0	0	364.09469924157	364.294701484614
342.416	0.2	600	16	0	20	24	11	9	1	0	0	stim012_stimuli_original_vehicles_boats_4.png	L	0	0	0	364.494714699103	364.694717673585
342.816	0.2	601	16	0	20	25	8	10	0	0	0	stim009_stimuli_original_vehicles_boats_1.png	Q	0	0	0	364.894719428965	365.094710456789
343.216	0.2	602	16	0	20	26	11	5	1	0	1	stim012_stimuli_original_vehicles_boats_4.png	F	0	0	0	365.294715625583	365.494722500909
343.616	0.2	603	16	0	20	27	5	8	0	0	0	stim006_stimuli_original_animals_fish_2.png	K	0	0	0	365.694717185921	365.895181935513
344.016	0.2	604	16	0	20	28	7	7	0	0	0	stim008_stimuli_original_animals_fish_4.png	J	0	0	0	366.094744833885	366.294760730234
344.416	0.2	605	16	0	20	29	3	10	0	1	0	stim004_stimuli_original_animals_birds_4.png	Q	0	0	0	366.494751514285	366.694774724892
344.816	0.2	606	16	0	20	30	10	15	0	0	0	stim011_stimuli_original_vehicles_boats_3.png	Y	0	0	0	366.89478013746	367.094767508213
345.216	0.2	607	16	0	20	31	13	10	0	1	0	stim014_stimuli_original_vehicles_planes_2.png	Q	0	0	0	367.294775602641	367.494791011442
345.616	0.2	608	16	0	20	32	11	0	0	0	0	stim012_stimuli_original_vehicles_boats_4.png	A	0	0	0	367.694803006831	367.894788914709
346.016	0.2	609	16	0	20	33	1	6	0	0	0	stim002_stimuli_original_animals_birds_2.png	G	0	0	0	368.09479457105	368.294798764517
346.416	0.2	610	16	0	20	34	14	11	0	0	0	stim015_stimuli_original_vehicles_planes_3.png	R	0	0	0	368.494820268592	368.694827387808
346.816	0.2	611	16	0	20	35	12	12	0	0	0	stim013_stimuli_original_vehicles_planes_1.png	T	0	0	0	368.89483426325	369.094818708138
349.332	0.2	612	17	1	8	0	7	8	0	0	0	stim008_stimuli_original_animals_fish_4.png	K	0	0	0	371.411537159933	371.611543791601
349.732	0.2	613	17	1	8	1	10	0	0	0	0	stim011_stimuli_original_vehicles_boats_3.png	A	0	0	0	371.811545303208	372.011548521463
350.132	0.2	614	17	1	8	2	12	5	0	0	0	stim013_stimuli_original_vehicles_planes_1.png	F	0	0	0	372.211556372116	372.41160030663
350.532	0.2	615	17	1	8	3	5	6	0	0	0	stim006_stimuli_original_animals_fish_2.png	G	0	0	0	372.611596942064	372.81197221356
350.933	0.2	616	17	1	8	4	9	4	0	0	0	stim010_stimuli_original_vehicles_boats_2.png	E	0	0	0	373.011586555745	373.211584897828
351.333	0.2	617	17	1	8	5	13	0	0	1	0	stim014_stimuli_original_vehicles_planes_2.png	A	0	0	0	373.411624931381	373.611625223886
351.733	0.2	618	17	1	8	6	4	9	0	0	0	stim005_stimuli_original_animals_fish_1.png	L	0	0	0	373.811617714586	374.011616788106
352.133	0.2	619	17	1	8	7	11	0	0	1	1	stim012_stimuli_original_vehicles_boats_4.png	A	0	0	0	374.211642436916	374.411646874156
352.533	0.2	620	17	1	8	8	6	7	0	0	0	stim007_stimuli_original_animals_fish_3.png	J	0	0	0	374.611651555286	374.811638682149
352.933	0.2	621	17	1	8	9	3	1	0	0	0	stim004_stimuli_original_animals_birds_4.png	B	NaN	375.004222779418	1	375.011664330959	375.211666330229
353.333	0.2	622	17	1	8	10	10	15	1	0	0	stim011_stimuli_original_vehicles_boats_3.png	Y	0	0	0	375.411682714242	375.611680568662
353.733	0.2	623	17	1	8	11	14	3	0	0	0	stim015_stimuli_original_vehicles_planes_3.png	D	0	0	0	375.811685249791	376.011690174812
354.133	0.2	624	17	1	8	12	10	14	1	0	0	stim011_stimuli_original_vehicles_boats_3.png	V	0	0	0	376.211694368278	376.411700268509
354.533	0.2	625	17	1	8	13	2	2	0	0	0	stim003_stimuli_original_animals_birds_3.png	C	0	0	0	376.611713482882	376.811730110785
354.933	0.2	626	17	1	8	14	15	12	0	0	0	stim016_stimuli_original_vehicles_planes_4.png	T	0	0	0	377.011699195718	377.211746055866
355.333	0.2	627	17	1	8	15	1	11	0	0	0	stim002_stimuli_original_animals_birds_2.png	R	0	0	0	377.411713921814	377.611735669547
355.733	0.2	628	17	1	8	16	0	13	0	0	0	stim001_stimuli_original_animals_birds_1.png	U	0	0	0	377.811734743067	378.011741130962
356.133	0.2	629	17	1	8	17	8	10	0	0	0	stim009_stimuli_original_vehicles_boats_1.png	Q	0	0	0	378.211750688264	378.411746836035
356.533	0.2	630	17	1	8	18	10	8	0	0	0	stim011_stimuli_original_vehicles_boats_3.png	K	0	0	0	378.61175980675	378.811759124044
356.933	0.2	631	17	1	8	19	13	0	0	0	0	stim014_stimuli_original_vehicles_planes_2.png	A	0	0	0	379.011764780502	379.21177116828
357.333	0.2	632	17	1	8	20	11	1	0	0	0	stim012_stimuli_original_vehicles_boats_4.png	B	0	0	0	379.411779262708	379.611787601025
357.733	0.2	633	17	1	8	21	12	15	0	0	0	stim013_stimuli_original_vehicles_planes_1.png	Y	0	0	0	379.811786674545	380.01179281855
358.133	0.2	634	17	1	8	22	2	2	0	0	0	stim003_stimuli_original_animals_birds_3.png	C	0	0	0	380.211798718665	380.411803643685
358.533	0.2	635	17	1	8	23	14	10	0	1	0	stim015_stimuli_original_vehicles_planes_3.png	Q	0	0	0	380.61180978769	380.811815687804
358.933	0.2	636	17	1	8	24	3	14	0	0	0	stim004_stimuli_original_animals_birds_4.png	V	0	0	0	381.011816711864	381.211823587306
359.333	0.2	637	17	1	8	25	15	10	0	1	1	stim016_stimuli_original_vehicles_planes_4.png	Q	0	0	0	381.411830218858	381.611836606753
359.733	0.2	638	17	1	8	26	1	3	0	0	0	stim002_stimuli_original_animals_birds_2.png	D	0	0	0	381.81182665925	382.011851332849
360.133	0.2	639	17	1	8	27	7	6	0	0	0	stim008_stimuli_original_animals_fish_4.png	G	0	0	0	382.211852844455	382.411854112172
360.533	0.2	640	17	1	8	28	0	11	1	0	0	stim001_stimuli_original_animals_birds_1.png	R	0	0	0	382.611866107676	382.811869569705
360.933	0.2	641	17	1	8	29	9	4	0	0	0	stim010_stimuli_original_vehicles_boats_2.png	E	0	0	0	383.011870837538	383.211871617706
361.333	0.2	642	17	1	8	30	0	13	1	0	0	stim001_stimuli_original_animals_birds_1.png	U	0	0	0	383.412364893011	383.611909505678
361.733	0.2	643	17	1	8	31	4	9	0	0	0	stim005_stimuli_original_animals_fish_1.png	L	0	0	0	383.811893706908	384.011890098453
362.133	0.2	644	17	1	8	32	6	5	0	0	0	stim007_stimuli_original_animals_fish_3.png	F	0	0	0	384.211899899645	384.411906531197
362.533	0.2	645	17	1	8	33	5	12	0	0	0	stim006_stimuli_original_animals_fish_2.png	T	0	0	0	384.61191072478	384.811918819207
362.933	0.2	646	17	1	8	34	0	10	0	0	0	stim001_stimuli_original_animals_birds_1.png	Q	0	0	0	385.011924719438	385.211923792958
363.333	0.2	647	17	1	8	35	8	7	0	0	0	stim009_stimuli_original_vehicles_boats_1.png	J	0	0	0	385.411930180737	385.611933398992
365.316	0.2	648	18	0	9	0	6	0	0	0	0	stim007_stimuli_original_animals_fish_3.png	A	0	0	0	387.395326026832	387.595330464188
365.716	0.2	649	18	0	9	1	8	13	0	0	0	stim009_stimuli_original_vehicles_boats_1.png	U	0	0	0	387.795335876755	387.995323247393
366.116	0.2	650	18	0	9	2	3	15	0	0	0	stim004_stimuli_original_animals_birds_4.png	Y	0	0	0	388.195349871414	388.395354796317
366.516	0.2	651	18	0	9	3	7	1	0	0	0	stim008_stimuli_original_animals_fish_4.png	B	0	0	0	388.595367279369	388.795361964381
366.916	0.2	652	18	0	9	4	10	6	0	0	0	stim011_stimuli_original_vehicles_boats_3.png	G	0	0	0	388.995369815035	389.195372545626
367.316	0.2	653	18	0	9	5	13	14	0	0	0	stim014_stimuli_original_vehicles_planes_2.png	V	0	0	0	389.395378933521	389.5953853213
367.717	0.2	654	18	0	9	6	1	5	0	0	0	stim002_stimuli_original_animals_birds_2.png	F	0	0	0	389.795807647984	389.995366645511
368.116	0.2	655	18	0	9	7	9	11	0	0	0	stim010_stimuli_original_vehicles_boats_2.png	R	0	0	0	390.195369619993	390.395373569685
368.516	0.2	656	18	0	9	8	5	2	0	0	0	stim006_stimuli_original_animals_fish_2.png	C	0	0	0	390.595387027948	390.795383419609
368.916	0.2	657	18	0	9	9	0	3	0	0	0	stim001_stimuli_original_animals_birds_1.png	D	0	0	0	390.995394196012	391.195392294205
369.316	0.2	658	18	0	9	10	7	12	1	0	0	stim008_stimuli_original_animals_fish_4.png	T	0	0	0	391.395399901085	391.595402875566
369.716	0.2	659	18	0	9	11	15	13	0	1	0	stim016_stimuli_original_vehicles_planes_4.png	U	0	0	0	391.795411457657	391.995415163576
370.116	0.2	660	18	0	9	12	7	7	1	0	1	stim008_stimuli_original_animals_fish_4.png	J	0	0	0	392.195423014229	392.395431840094
370.516	0.2	661	18	0	9	13	4	13	0	1	0	stim005_stimuli_original_animals_fish_1.png	U	0	0	0	392.595440178411	392.795440227143
370.916	0.2	662	18	0	9	14	11	10	0	0	0	stim012_stimuli_original_vehicles_boats_4.png	Q	0	0	0	392.995449540671	393.19547689613
371.316	0.2	663	18	0	9	15	12	9	0	0	0	stim013_stimuli_original_vehicles_planes_1.png	L	0	0	0	393.395483771572	393.595489184139
371.716	0.2	664	18	0	9	16	14	8	0	0	0	stim015_stimuli_original_vehicles_planes_3.png	K	0	0	0	393.795506543363	393.995501228259
372.116	0.2	665	18	0	9	17	2	4	0	0	0	stim003_stimuli_original_animals_birds_3.png	E	0	0	0	394.195492499974	394.395515222917
372.516	0.2	666	18	0	9	18	4	2	0	0	0	stim005_stimuli_original_animals_fish_1.png	C	0	0	0	394.59550137457	394.795522147091
372.916	0.2	667	18	0	9	19	8	14	0	0	0	stim009_stimuli_original_vehicles_boats_1.png	V	0	0	0	394.99553170451	395.195750206476
373.316	0.2	668	18	0	9	20	9	12	0	0	0	stim010_stimuli_original_vehicles_boats_2.png	T	0	0	0	395.395514247706	395.595517709851
373.716	0.2	669	18	0	9	21	10	11	0	0	0	stim011_stimuli_original_vehicles_boats_3.png	R	0	0	0	395.79552409763	395.995535849244
374.116	0.2	670	18	0	9	22	13	4	1	0	0	stim014_stimuli_original_vehicles_planes_2.png	E	0	0	0	396.195558816078	396.39556837338
374.516	0.2	671	18	0	9	23	7	7	0	1	0	stim008_stimuli_original_animals_fish_4.png	J	0	0	0	396.595557206892	396.795561644249
374.916	0.2	672	18	0	9	24	13	15	1	0	1	stim014_stimuli_original_vehicles_planes_2.png	Y	0	0	0	396.995584854973	397.19556954375
375.316	0.2	673	18	0	9	25	12	7	0	1	0	stim013_stimuli_original_vehicles_planes_1.png	J	0	0	0	397.395590803935	397.595596947824
375.716	0.2	674	18	0	9	26	3	0	0	0	0	stim004_stimuli_original_animals_birds_4.png	A	0	0	0	397.795607480453	397.995623376803
376.116	0.2	675	18	0	9	27	2	5	0	0	0	stim003_stimuli_original_animals_birds_3.png	F	0	0	0	398.195613185642	398.395628838101
376.516	0.2	676	18	0	9	28	11	9	0	0	0	stim012_stimuli_original_vehicles_boats_4.png	L	0	0	0	398.595611088793	398.795627229032
376.916	0.2	677	18	0	9	29	5	1	0	0	0	stim006_stimuli_original_animals_fish_2.png	B	0	0	0	398.99562118249	399.195637810393
377.316	0.2	678	18	0	9	30	14	13	0	0	0	stim015_stimuli_original_vehicles_planes_3.png	U	0	0	0	399.395630057203	399.595652048825
377.716	0.2	679	18	0	9	31	6	10	0	0	0	stim007_stimuli_original_animals_fish_3.png	Q	0	0	0	399.795659899479	399.995663605398
378.116	0.2	680	18	0	9	32	1	7	0	0	0	stim002_stimuli_original_animals_birds_2.png	J	0	0	0	400.195667067426	400.395652975305
378.516	0.2	681	18	0	9	33	15	3	0	0	0	stim016_stimuli_original_vehicles_planes_4.png	D	0	0	0	400.595657900209	400.795659168041
378.916	0.2	682	18	0	9	34	13	8	0	0	0	stim014_stimuli_original_vehicles_planes_2.png	K	0	0	0	400.995662142523	401.195667311316
379.317	0.2	683	18	0	9	35	0	6	0	0	0	stim001_stimuli_original_animals_birds_1.png	G	0	0	0	401.395669798134	401.595670822193
385.2	0.2	684	19	1	12	0	1	4	0	0	0	stim002_stimuli_original_animals_birds_2.png	E	0	0	0	407.279160827398	407.479172822786
385.6	0.2	685	19	1	12	1	5	9	0	0	0	stim006_stimuli_original_animals_fish_2.png	L	0	0	0	407.679181404877	407.879181209835
386	0.2	686	19	1	12	2	6	8	0	0	0	stim007_stimuli_original_animals_fish_3.png	K	0	0	0	408.079188329168	408.279183989274
386.4	0.2	687	19	1	12	3	12	10	0	0	0	stim013_stimuli_original_vehicles_planes_1.png	Q	0	0	0	408.479222316178	408.679227241082
386.8	0.2	688	19	1	12	4	11	7	0	0	0	stim012_stimuli_original_vehicles_boats_4.png	J	0	0	0	408.879229728016	409.079233190045
387.2	0.2	689	19	1	12	5	3	1	0	0	0	stim004_stimuli_original_animals_birds_4.png	B	0	0	0	409.279248111183	409.479236700921
387.6	0.2	690	19	1	12	6	7	6	0	0	0	stim008_stimuli_original_animals_fish_4.png	G	0	0	0	409.679221389699	409.87922704604
388	0.2	691	19	1	12	7	0	0	0	0	0	stim001_stimuli_original_animals_birds_1.png	A	0	0	0	410.079232702381	410.2792422598
388.4	0.2	692	19	1	12	8	13	11	0	0	0	stim014_stimuli_original_vehicles_planes_2.png	R	0	0	0	410.479250110453	410.679246745887
388.8	0.2	693	19	1	12	9	15	3	0	0	0	stim016_stimuli_original_vehicles_planes_4.png	D	0	0	0	410.879264592659	411.079289997695
389.2	0.2	694	19	1	12	10	0	2	1	0	0	stim001_stimuli_original_animals_birds_1.png	C	0	0	0	411.279300286435	411.479299847502
389.6	0.2	695	19	1	12	11	4	13	0	1	0	stim005_stimuli_original_animals_fish_1.png	U	0	0	0	411.679289900116	411.879307503114
390	0.2	696	19	1	12	12	0	15	1	0	0	stim001_stimuli_original_animals_birds_1.png	Y	0	0	0	412.079316572868	412.279321253998
390.4	0.2	697	19	1	12	13	14	13	0	1	1	stim015_stimuli_original_vehicles_planes_3.png	U	0	0	0	412.479326422792	412.679333298234
390.8	0.2	698	19	1	12	14	2	12	0	0	0	stim003_stimuli_original_animals_birds_3.png	T	0	0	0	412.879323838395	413.079341197619
391.2	0.2	699	19	1	12	15	8	14	0	0	0	stim009_stimuli_original_vehicles_boats_1.png	V	0	0	0	413.27934685396	413.479356655153
391.6	0.2	700	19	1	12	16	10	13	0	0	0	stim011_stimuli_original_vehicles_boats_3.png	U	0	0	0	413.679345488665	413.879363335553
392	0.2	701	19	1	12	17	9	5	0	0	0	stim010_stimuli_original_vehicles_boats_2.png	F	0	0	0	414.079370210995	414.279358556843
392.4	0.2	702	19	1	12	18	5	9	0	0	0	stim006_stimuli_original_animals_fish_2.png	L	0	0	0	414.479384205653	414.679395957268
392.8	0.2	703	19	1	12	19	13	10	0	0	0	stim014_stimuli_original_vehicles_planes_2.png	Q	0	0	0	414.879377964069	415.079379963339
393.2	0.2	704	19	1	12	20	14	8	0	0	0	stim015_stimuli_original_vehicles_planes_3.png	K	0	0	0	415.279385132133	415.479405660881
393.6	0.2	705	19	1	12	21	12	2	0	0	0	stim013_stimuli_original_vehicles_planes_1.png	C	0	0	0	415.679399614339	415.879416486016
394.001	0.2	706	19	1	12	22	13	14	1	0	0	stim014_stimuli_original_vehicles_planes_2.png	V	0	0	0	416.079920732649	416.279431455885
394.4	0.2	707	19	1	12	23	15	0	0	1	0	stim016_stimuli_original_vehicles_planes_4.png	A	0	0	0	416.479422239936	416.679438867723
394.8	0.2	708	19	1	12	24	13	4	1	0	0	stim014_stimuli_original_vehicles_planes_2.png	E	0	0	0	416.879443061189	417.079423117568
395.2	0.2	709	19	1	12	25	2	0	0	1	1	stim003_stimuli_original_animals_birds_3.png	A	0	0	0	417.279458762496	417.479457836016
395.6	0.2	710	19	1	12	26	3	15	0	0	0	stim004_stimuli_original_animals_birds_4.png	Y	0	0	0	417.679473976255	417.879460127908
396	0.2	711	19	1	12	27	11	13	0	0	0	stim012_stimuli_original_vehicles_boats_4.png	U	NaN	418.072078358382	1	418.079471148085	418.279490701621
396.4	0.2	712	19	1	12	28	0	0	0	0	0	stim001_stimuli_original_animals_birds_1.png	A	0	0	0	418.479491238017	418.679482509615
396.8	0.2	713	19	1	12	29	6	7	0	0	0	stim007_stimuli_original_animals_fish_3.png	J	0	0	0	418.879503282136	419.079492603312
397.2	0.2	714	19	1	12	30	1	3	0	0	0	stim002_stimuli_original_animals_birds_2.png	D	0	0	0	419.279513619724	419.479510986479
397.6	0.2	715	19	1	12	31	7	11	0	0	0	stim008_stimuli_original_animals_fish_4.png	R	0	0	0	419.679503964842	419.879493286018
398	0.2	716	19	1	12	32	10	12	0	0	0	stim011_stimuli_original_vehicles_boats_3.png	T	0	0	0	420.079504793743	420.279515570146
398.4	0.2	717	19	1	12	33	8	6	0	0	0	stim009_stimuli_original_vehicles_boats_1.png	G	0	0	0	420.479522445588	420.679523713421
398.8	0.2	718	19	1	12	34	9	5	0	0	0	stim010_stimuli_original_vehicles_boats_2.png	F	0	0	0	420.879531564075	421.079535026103
399.2	0.2	719	19	1	12	35	4	1	0	0	0	stim005_stimuli_original_animals_fish_1.png	B	0	0	0	421.279532392975	421.4799520378
401.884	0.2	720	20	0	42	0	3	0	0	0	0	stim004_stimuli_original_animals_birds_4.png	A	0	0	0	423.962955350638	424.162957837572
402.284	0.2	721	20	0	42	1	4	15	0	0	0	stim005_stimuli_original_animals_fish_1.png	Y	0	0	0	424.362963981577	424.562965249293
402.684	0.2	722	20	0	42	2	12	9	0	0	0	stim013_stimuli_original_vehicles_planes_1.png	L	0	0	0	424.762974562822	424.962976074428
403.084	0.2	723	20	0	42	3	15	11	0	0	0	stim016_stimuli_original_vehicles_planes_4.png	R	0	0	0	425.162977342261	425.362981779617
403.484	0.2	724	20	0	42	4	8	14	0	0	0	stim009_stimuli_original_vehicles_boats_1.png	V	0	0	0	425.562989386497	425.762996505713
403.884	0.2	725	20	0	42	5	2	7	0	0	0	stim003_stimuli_original_animals_birds_3.png	J	0	0	0	425.962999723968	426.162998553715
404.284	0.2	726	20	0	42	6	7	15	0	1	0	stim008_stimuli_original_animals_fish_4.png	Y	0	0	0	426.363034198643	426.563013523584
404.684	0.2	727	20	0	42	7	8	10	1	0	0	stim009_stimuli_original_vehicles_boats_1.png	Q	0	0	0	426.763030639035	426.963034344953
405.084	0.2	728	20	0	42	8	9	15	0	1	0	stim010_stimuli_original_vehicles_boats_2.png	Y	0	0	0	427.163052191725	427.363060286269
405.484	0.2	729	20	0	42	9	8	8	1	0	1	stim009_stimuli_original_vehicles_boats_1.png	K	0	0	0	427.563064723625	427.763065503794
405.884	0.2	730	20	0	42	10	14	2	0	0	0	stim015_stimuli_original_vehicles_planes_3.png	C	0	0	0	427.963076523971	428.163067308022
406.284	0.2	731	20	0	42	11	1	6	0	0	0	stim002_stimuli_original_animals_birds_2.png	G	0	0	0	428.363068088191	428.563557950081
406.684	0.2	732	20	0	42	12	10	5	0	0	0	stim011_stimuli_original_vehicles_boats_3.png	F	0	0	0	428.763095492381	428.963100417284
407.084	0.2	733	20	0	42	13	13	3	0	0	0	stim014_stimuli_original_vehicles_planes_2.png	D	0	0	0	429.16311046225	429.363102221512
407.484	0.2	734	20	0	42	14	5	4	0	0	0	stim006_stimuli_original_animals_fish_2.png	E	0	0	0	429.563120312174	429.763117191382
407.884	0.2	735	20	0	42	15	6	12	0	0	0	stim007_stimuli_original_animals_fish_3.png	T	0	0	0	429.963127236348	430.16312826029
408.284	0.2	736	20	0	42	16	11	13	0	0	0	stim012_stimuli_original_vehicles_boats_4.png	U	0	0	0	430.363154396648	430.563139816863
408.684	0.2	737	20	0	42	17	0	1	0	0	0	stim001_stimuli_original_animals_birds_1.png	B	0	0	0	430.763146204758	430.963151617325
409.084	0.2	738	20	0	42	18	1	0	0	0	0	stim002_stimuli_original_animals_birds_2.png	A	0	0	0	431.163150690845	431.363167318632
409.484	0.2	739	20	0	42	19	13	11	0	0	0	stim014_stimuli_original_vehicles_planes_2.png	R	0	0	0	431.563151519746	431.763156932313
409.884	0.2	740	20	0	42	20	12	6	0	0	0	stim013_stimuli_original_vehicles_planes_1.png	G	0	0	0	431.963179899147	432.163183117402
410.284	0.2	741	20	0	42	21	4	5	0	0	0	stim005_stimuli_original_animals_fish_1.png	F	0	0	0	432.363189017633	432.563188091153
410.684	0.2	742	20	0	42	22	3	13	0	0	0	stim004_stimuli_original_animals_birds_4.png	U	0	0	0	432.763200574205	432.963208912523
411.084	0.2	743	20	0	42	23	5	10	0	0	0	stim006_stimuli_original_animals_fish_2.png	Q	0	0	0	433.163210180239	433.363216568134
411.484	0.2	744	20	0	42	24	6	1	0	0	0	stim007_stimuli_original_animals_fish_3.png	B	0	0	0	433.563210277818	433.763209595112
411.884	0.2	745	20	0	42	25	2	14	0	0	0	stim003_stimuli_original_animals_birds_3.png	V	0	0	0	433.963236950571	434.163214812637
412.284	0.2	746	20	0	42	26	8	8	0	1	0	stim009_stimuli_original_vehicles_boats_1.png	K	0	0	0	434.363232903299	434.563213935005
412.684	0.2	747	20	0	42	27	15	9	1	0	0	stim016_stimuli_original_vehicles_planes_4.png	L	0	0	0	434.763224467519	434.963227685774
413.084	0.2	748	20	0	42	28	10	8	0	1	0	stim011_stimuli_original_vehicles_boats_3.png	K	0	0	0	435.163249433623	435.36325484619
413.484	0.2	749	20	0	42	29	15	7	1	0	1	stim016_stimuli_original_vehicles_planes_4.png	J	0	0	0	435.563247580663	435.763262258028
413.884	0.2	750	20	0	42	30	7	2	0	0	0	stim008_stimuli_original_animals_fish_4.png	C	NaN	435.955902187503	1	435.963272302994	436.163276252686
414.284	0.2	751	20	0	42	31	14	8	0	0	0	stim015_stimuli_original_vehicles_planes_3.png	K	0	0	0	436.363281665253	436.56328025111
414.684	0.2	752	20	0	42	32	11	15	0	0	0	stim012_stimuli_original_vehicles_boats_4.png	Y	0	0	0	436.763287370326	436.963291320018
415.084	0.2	753	20	0	42	33	9	12	0	0	0	stim010_stimuli_original_vehicles_boats_2.png	T	0	0	0	437.163304290734	437.363301657606
415.484	0.2	754	20	0	42	34	15	4	0	0	0	stim016_stimuli_original_vehicles_planes_4.png	E	0	0	0	437.56329829304	437.763310776092
415.884	0.2	755	20	0	42	35	0	3	0	0	0	stim001_stimuli_original_animals_birds_1.png	D	0	0	0	437.963309605839	438.163314286969
418.384	0.2	756	21	1	30	0	9	8	0	0	0	stim010_stimuli_original_vehicles_boats_2.png	K	0	0	0	440.463392988662	440.663409128785
418.784	0.2	757	21	1	30	1	14	12	0	0	0	stim015_stimuli_original_vehicles_planes_3.png	T	0	0	0	440.863422587048	441.063423611107
419.184	0.2	758	21	1	30	2	12	15	0	0	0	stim013_stimuli_original_vehicles_planes_1.png	Y	0	0	0	441.263432680746	441.463419807609
419.584	0.2	759	21	1	30	3	8	1	0	0	0	stim009_stimuli_original_vehicles_boats_1.png	B	0	0	0	441.663445456419	441.863445017487
419.984	0.2	760	21	1	30	4	10	6	0	0	0	stim011_stimuli_original_vehicles_boats_3.png	G	0	0	0	442.063450186281	442.263450235012
420.384	0.2	761	21	1	30	5	3	0	0	0	0	stim004_stimuli_original_animals_birds_4.png	A	0	0	0	442.463444920024	442.663460816373
420.784	0.2	762	21	1	30	6	0	4	0	0	0	stim001_stimuli_original_animals_birds_1.png	E	0	0	0	442.863471349003	443.063474323484
421.184	0.2	763	21	1	30	7	4	11	0	0	0	stim005_stimuli_original_animals_fish_1.png	R	0	0	0	443.263490707381	443.463484417181
421.584	0.2	764	21	1	30	8	15	13	0	0	0	stim016_stimuli_original_vehicles_planes_4.png	U	0	0	0	443.663477395428	443.863479150808
421.984	0.2	765	21	1	30	9	5	10	0	0	0	stim006_stimuli_original_animals_fish_2.png	Q	0	0	0	444.063504068181	444.263490707381
422.384	0.2	766	21	1	30	10	12	15	1	1	0	stim013_stimuli_original_vehicles_planes_1.png	Y	0	0	0	444.463504897198	444.663522256422
422.784	0.2	767	21	1	30	11	1	2	0	0	0	stim002_stimuli_original_animals_birds_2.png	C	0	0	0	444.863519623177	445.0635211349
423.184	0.2	768	21	1	30	12	12	15	1	1	1	stim013_stimuli_original_vehicles_planes_1.png	Y	0	0	0	445.263524353155	445.463530740933
423.584	0.2	769	21	1	30	13	7	7	0	0	0	stim008_stimuli_original_animals_fish_4.png	J	0	0	0	445.663533959188	445.863542541279
423.984	0.2	770	21	1	30	14	2	14	0	0	0	stim003_stimuli_original_animals_birds_3.png	V	0	0	0	446.063793470035	446.263553854078
424.384	0.2	771	21	1	30	15	6	3	0	0	0	stim007_stimuli_original_animals_fish_3.png	D	0	0	0	446.463561704732	446.663561265916
424.784	0.2	772	21	1	30	16	11	9	0	0	0	stim012_stimuli_original_vehicles_boats_4.png	L	0	0	0	446.863568872679	447.063574285363
425.184	0.2	773	21	1	30	17	13	5	0	0	0	stim014_stimuli_original_vehicles_planes_2.png	F	0	0	0	447.26357969793	447.463580721873
425.584	0.2	774	21	1	30	18	5	13	0	0	0	stim006_stimuli_original_animals_fish_2.png	U	0	0	0	447.663591985824	447.863595447969
425.984	0.2	775	21	1	30	19	9	11	0	0	0	stim010_stimuli_original_vehicles_boats_2.png	R	0	0	0	448.063606468146	448.263601884479
426.384	0.2	776	21	1	30	20	3	6	0	0	0	stim004_stimuli_original_animals_birds_4.png	G	0	0	0	448.463609735249	448.663611978292
426.784	0.2	777	21	1	30	21	14	2	0	0	0	stim015_stimuli_original_vehicles_planes_3.png	C	0	0	0	448.863621535595	449.063625485287
427.184	0.2	778	21	1	30	22	7	7	0	0	0	stim008_stimuli_original_animals_fish_4.png	J	0	0	0	449.263633823604	449.463634847547
427.584	0.2	779	21	1	30	23	15	12	1	1	0	stim016_stimuli_original_vehicles_planes_4.png	T	0	0	0	449.663641722989	449.863646647893
427.984	0.2	780	21	1	30	24	2	1	0	0	0	stim003_stimuli_original_animals_birds_3.png	B	0	0	0	450.063654254773	450.26366259309
428.384	0.2	781	21	1	30	25	15	12	1	1	1	stim016_stimuli_original_vehicles_planes_4.png	T	0	0	0	450.463663129485	450.663667322951
428.784	0.2	782	21	1	30	26	10	5	0	0	0	stim011_stimuli_original_vehicles_boats_3.png	F	NaN	451.055441777804	1	450.863675905042	451.063680098625
429.184	0.2	783	21	1	30	27	13	15	0	0	0	stim014_stimuli_original_vehicles_planes_2.png	Y	0	0	0	451.263686974067	451.463980569388
429.584	0.2	784	21	1	30	28	11	4	0	0	0	stim012_stimuli_original_vehicles_boats_4.png	E	0	0	0	451.663696823874	451.863702236442
429.984	0.2	785	21	1	30	29	4	0	0	0	0	stim005_stimuli_original_animals_fish_1.png	A	0	0	0	452.063705942361	452.263709404506
430.384	0.2	786	21	1	30	30	0	3	0	0	0	stim001_stimuli_original_animals_birds_1.png	D	0	0	0	452.463718961808	452.663719254429
430.784	0.2	787	21	1	30	31	6	10	0	0	0	stim007_stimuli_original_animals_fish_3.png	Q	0	0	0	452.863730030716	453.063730567112
431.184	0.2	788	21	1	30	32	1	8	0	0	0	stim002_stimuli_original_animals_birds_2.png	K	0	0	0	453.263719400624	453.463742855121
431.584	0.2	789	21	1	30	33	15	12	0	0	0	stim016_stimuli_original_vehicles_planes_4.png	T	0	0	0	453.663748999126	453.863754411694
431.984	0.2	790	21	1	30	34	12	14	0	0	0	stim013_stimuli_original_vehicles_planes_1.png	V	0	0	0	454.063762993785	454.263761335867
432.384	0.2	791	21	1	30	35	8	9	0	0	0	stim009_stimuli_original_vehicles_boats_1.png	L	0	0	0	454.463772599935	454.663774842978
435.151	0.2	792	22	0	35	0	7	14	0	0	0	stim008_stimuli_original_animals_fish_4.png	V	0	0	0	457.230496951845	457.430503095849
435.551	0.2	793	22	0	35	1	1	6	0	0	0	stim002_stimuli_original_animals_birds_2.png	G	0	0	0	457.630534596043	457.830538545735
435.951	0.2	794	22	0	35	2	11	8	0	0	0	stim012_stimuli_original_vehicles_boats_4.png	K	0	0	0	458.030549078365	458.230543031823
436.351	0.2	795	22	0	35	3	2	4	0	0	0	stim003_stimuli_original_animals_birds_3.png	E	0	0	0	458.430552345351	458.631026359741
436.751	0.2	796	22	0	35	4	0	9	0	0	0	stim001_stimuli_original_animals_birds_1.png	L	0	0	0	458.830556831439	459.030561025022
437.151	0.2	797	22	0	35	5	10	15	0	0	0	stim011_stimuli_original_vehicles_boats_3.png	Y	0	0	0	459.230568631901	459.430568680633
437.551	0.2	798	22	0	35	6	12	13	0	0	0	stim013_stimuli_original_vehicles_planes_1.png	U	0	0	0	459.630574824638	459.830584625714
437.951	0.2	799	22	0	35	7	6	12	1	0	0	stim007_stimuli_original_animals_fish_3.png	T	0	0	0	460.030588575522	460.230594475637
438.351	0.2	800	22	0	35	8	8	11	0	1	0	stim009_stimuli_original_vehicles_boats_1.png	R	0	0	0	460.430594524369	460.630601887475
438.751	0.2	801	22	0	35	9	6	0	1	0	1	stim007_stimuli_original_animals_fish_3.png	A	0	0	0	460.830613395316	461.030615394469
439.151	0.2	802	22	0	35	10	13	11	0	1	0	stim014_stimuli_original_vehicles_planes_2.png	R	0	0	0	461.230605934747	461.430621831096
