onset	duration	eventnumber	sequencenumber	condition	streamnumber	stimnumber	objectstimnumber	letterstimnumber	objecttarget	lettertarget	is2back	objectstim	letterstim	response	rt	correct	time_stimon	time_stimoff
17119.75	100	0	0	0	19	0	4	10	0	0	0	stim005_stimuli_original_animals_fish_1.png	Q	0	0	0	52.7938171876594	52.9938186993822
17220	100	1	0	0	19	1	10	1	0	0	0	stim011_stimuli_original_vehicles_boats_3.png	B	0	0	0	53.1947049954906	53.3938339131419
17319.75	100	2	0	0	19	2	6	14	0	0	0	stim007_stimuli_original_animals_fish_3.png	V	0	0	0	53.5938400570303	53.793839618098
17419.75	100	3	0	0	19	3	1	3	0	0	0	stim002_stimuli_original_animals_birds_2.png	D	0	0	0	53.9938521012664	54.1938536127564
17519.75	100	4	0	0	19	4	13	15	0	0	0	stim014_stimuli_original_vehicles_planes_2.png	Y	0	0	0	54.3938631701749	54.5938598054927
17619.75	100	5	0	0	19	5	0	12	0	0	0	stim001_stimuli_original_animals_birds_1.png	T	0	0	0	54.7938991077244	54.9938772136811
17719.75	100	6	0	0	19	6	7	0	0	0	0	stim008_stimuli_original_animals_fish_4.png	A	0	0	0	55.1938904281706	55.393886575941
17819.75	100	7	0	0	19	7	9	9	1	0	0	stim010_stimuli_original_vehicles_boats_2.png	L	0	0	0	55.5938910131808	55.7939000828192
17919.75	100	8	0	0	19	8	12	6	0	0	0	stim013_stimuli_original_vehicles_planes_1.png	G	0	0	0	55.9939111031126	56.1939170032274
18019.75	100	9	0	0	19	9	9	12	1	1	1	stim010_stimuli_original_vehicles_boats_2.png	T	0	0	0	56.3939492348582	56.5939158818219
18119.75	100	10	0	0	19	10	14	8	0	0	0	stim015_stimuli_original_vehicles_planes_3.png	K	0	0	0	56.7939208066091	56.9939230496529
18219.75	100	11	0	0	19	11	5	12	0	1	0	stim006_stimuli_original_animals_fish_2.png	T	a	57.1865839469247	1	57.1939411403146	57.3939616691787
18319.75	100	12	0	0	19	12	8	11	0	0	0	stim009_stimuli_original_vehicles_boats_1.png	R	0	0	0	57.5939561103005	57.7939546962734
18419.75	100	13	0	0	19	13	2	2	0	0	0	stim003_stimuli_original_animals_birds_3.png	C	0	0	0	57.993964985013	58.1939696660265
18519.75	100	14	0	0	19	14	9	5	0	0	0	stim010_stimuli_original_vehicles_boats_2.png	F	0	0	0	58.3939743472729	58.5939653750975
18619.75	100	15	0	0	19	15	3	7	0	0	0	stim004_stimuli_original_animals_birds_4.png	J	a	58.9857388546225	0	58.7939729818609	58.9939781506546
18719.75	100	16	0	0	19	16	11	13	0	0	0	stim012_stimuli_original_vehicles_boats_4.png	U	0	0	0	59.1939879518468	59.3939919015393
18819.75	100	17	0	0	19	17	15	4	0	0	0	stim016_stimuli_original_vehicles_planes_4.png	E	0	0	0	59.593997070333	59.7939954122994
18919.75	100	18	0	0	19	18	4	15	0	0	0	stim005_stimuli_original_animals_fish_1.png	Y	0	0	0	59.994010577444	60.1940116013866
19019.75	100	19	0	0	19	19	13	11	0	0	0	stim014_stimuli_original_vehicles_planes_2.png	R	0	0	0	60.3940145757515	60.5940165750217
19119.75	100	20	0	0	19	20	7	3	0	0	0	stim008_stimuli_original_animals_fish_4.png	D	0	0	0	60.7940244257916	60.9940269126091
19219.75	100	21	0	0	19	21	5	9	0	0	0	stim006_stimuli_original_animals_fish_2.png	L	0	0	0	61.1940401270986	61.3940406634938
19319.75	100	22	0	0	19	22	2	2	0	0	0	stim003_stimuli_original_animals_birds_3.png	C	0	0	0	61.594045588281	61.7940485628787
19419.75	100	23	0	0	19	23	11	8	0	0	0	stim012_stimuli_original_vehicles_boats_4.png	K	0	0	0	61.9940649468917	62.1940752356313
19519.75	100	24	0	0	19	24	12	5	1	0	0	stim013_stimuli_original_vehicles_planes_1.png	F	0	0	0	62.3940718709491	62.594069725601
19619.75	100	25	0	0	19	25	8	14	0	0	0	stim009_stimuli_original_vehicles_boats_1.png	V	0	0	0	62.7940797705669	62.9940798191819
19719.75	100	26	0	0	19	26	12	9	1	1	1	stim013_stimuli_original_vehicles_planes_1.png	L	0	0	0	63.1940988851711	63.3940955204889
19819.75	100	27	0	0	19	27	6	12	0	0	0	stim007_stimuli_original_animals_fish_3.png	T	0	0	0	63.5941070283297	63.7941248752177
19919.75	100	28	0	0	19	28	9	9	0	1	0	stim010_stimuli_original_vehicles_boats_2.png	L	0	0	0	63.9941122459713	64.194123266032
20019.75	100	29	0	0	19	29	0	7	0	0	0	stim001_stimuli_original_animals_birds_1.png	J	0	0	0	64.3941284348257	64.5941228759475
20119.75	100	30	0	0	19	30	12	0	0	0	0	stim013_stimuli_original_vehicles_planes_1.png	A	0	0	0	64.7941326771397	64.9941329697613
20219.75	100	31	0	0	19	31	15	13	0	0	0	stim016_stimuli_original_vehicles_planes_4.png	U	0	0	0	65.1941413080785	65.3941498901695
20319.75	100	32	0	0	19	32	3	1	0	0	0	stim004_stimuli_original_animals_birds_4.png	B	0	0	0	65.5941709063482	65.7941658352502
20419.75	100	33	0	0	19	33	14	6	0	0	0	stim015_stimuli_original_vehicles_planes_3.png	G	0	0	0	65.9941897771787	66.1941861689556
20519.75	100	34	0	0	19	34	1	10	0	0	0	stim002_stimuli_original_animals_birds_2.png	Q	0	0	0	66.394191581523	66.5941940683406
20619.75	100	35	0	0	19	35	10	4	0	0	0	stim011_stimuli_original_vehicles_boats_3.png	E	0	0	0	66.794199480908	66.9941980668809
21499	100	36	1	1	39	0	5	10	0	0	0	stim006_stimuli_original_animals_fish_2.png	Q	0	0	0	70.3109577223659	70.5109589900821
21599	100	37	1	1	39	1	2	9	0	0	0	stim003_stimuli_original_animals_birds_3.png	L	0	0	0	70.7109670846257	70.9109681085683
21699	100	38	1	1	39	2	14	14	0	0	0	stim015_stimuli_original_vehicles_planes_3.png	V	0	0	0	71.1109908316284	71.31116934889
21799	100	39	1	1	39	3	10	15	0	0	0	stim011_stimuli_original_vehicles_boats_3.png	Y	0	0	0	71.5109855653718	71.7109921970405
21899	100	40	1	1	39	4	3	5	0	0	0	stim004_stimuli_original_animals_birds_4.png	F	0	0	0	71.9110002915841	72.1110069230199
21999	100	41	1	1	39	5	11	12	0	0	0	stim012_stimuli_original_vehicles_boats_4.png	T	0	0	0	72.3110315967351	72.5110114093404
22099	100	42	1	1	39	6	6	2	0	0	0	stim007_stimuli_original_animals_fish_3.png	C	0	0	0	72.7110173094552	72.9110273544211
22199	100	43	1	1	39	7	13	8	0	0	0	stim014_stimuli_original_vehicles_planes_2.png	K	0	0	0	73.1110313041136	73.311035253806
22299	100	44	1	1	39	8	15	3	0	1	0	stim016_stimuli_original_vehicles_planes_4.png	D	0	0	0	73.5110421292484	73.7110485169105
22399	100	45	1	1	39	9	2	7	1	0	0	stim003_stimuli_original_animals_birds_3.png	J	0	0	0	73.9110517352819	74.1110554412007
22499	100	46	1	1	39	10	4	3	0	1	1	stim005_stimuli_original_animals_fish_1.png	D	0	0	0	74.3110608537681	74.5110635843594
22599	100	47	1	1	39	11	2	4	1	0	0	stim003_stimuli_original_animals_birds_3.png	E	0	0	0	74.711071678903	74.9110753848217
22699	100	48	1	1	39	12	0	0	0	0	0	stim001_stimuli_original_animals_birds_1.png	A	0	0	0	75.1110864051152	75.311083040433
22799	100	49	1	1	39	13	1	11	0	0	0	stim002_stimuli_original_animals_birds_2.png	R	0	0	0	75.5110933291726	75.7110950846691
22899	100	50	1	1	39	14	9	3	0	0	0	stim010_stimuli_original_vehicles_boats_2.png	D	0	0	0	75.9111026914325	76.1111090793274
22999	100	51	1	1	39	15	12	13	0	0	0	stim013_stimuli_original_vehicles_planes_1.png	U	0	0	0	76.3111159547698	76.5111157596111
23099	100	52	1	1	39	16	8	1	0	0	0	stim009_stimuli_original_vehicles_boats_1.png	B	0	0	0	76.7111528674141	76.9111555982381
23199	100	53	1	1	39	17	7	6	0	0	0	stim008_stimuli_original_animals_fish_4.png	G	0	0	0	77.1111400430091	77.3111388727557
23299	100	54	1	1	39	18	6	7	0	0	0	stim007_stimuli_original_animals_fish_3.png	J	0	0	0	77.5111445290968	77.7111538427416
23399	100	55	1	1	39	19	1	8	0	0	0	stim002_stimuli_original_animals_birds_2.png	K	0	0	0	77.9111560857855	78.1111666182987
23499	100	56	1	1	39	20	13	12	0	0	0	stim014_stimuli_original_vehicles_planes_2.png	T	0	0	0	78.3111652042717	78.5111684224103
23599	100	57	1	1	39	21	3	9	0	0	0	stim004_stimuli_original_animals_birds_4.png	L	0	0	0	78.7111755416263	78.9111816857476
23699	100	58	1	1	39	22	11	1	0	0	0	stim012_stimuli_original_vehicles_boats_4.png	B	0	0	0	79.111204896355	79.3111903166864
23799	100	59	1	1	39	23	0	0	0	0	0	stim001_stimuli_original_animals_birds_1.png	A	a	79.7029745238833	0	79.5111979234498	79.7112026046962
23899	100	60	1	1	39	24	4	2	0	1	0	stim005_stimuli_original_animals_fish_1.png	C	0	0	0	79.9112177696079	80.1112185497768
23999	100	61	1	1	39	25	3	4	1	0	0	stim004_stimuli_original_animals_birds_4.png	E	0	0	0	80.3112195737194	80.5112386397086
24099	100	62	1	1	39	26	7	2	0	1	1	stim008_stimuli_original_animals_fish_4.png	C	0	0	0	80.7112272293307	80.9112321543507
24199	100	63	1	1	39	27	3	15	1	0	0	stim004_stimuli_original_animals_birds_4.png	Y	0	0	0	81.1112419553101	81.3112424917053
24299	100	64	1	1	39	28	8	13	0	0	0	stim009_stimuli_original_vehicles_boats_1.png	U	0	0	0	81.5112535119988	81.7112547797151
24399.25	100	65	1	1	39	29	2	6	0	0	0	stim003_stimuli_original_animals_birds_3.png	G	0	0	0	81.9114847409073	82.1112704810221
24499	100	66	1	1	39	30	12	11	0	0	0	stim013_stimuli_original_vehicles_planes_1.png	R	0	0	0	82.3112705298699	82.5112764299847
24599	100	67	1	1	39	31	5	3	0	0	0	stim006_stimuli_original_animals_fish_2.png	D	0	0	0	82.7112813550048	82.9112860362511
24699.25	100	68	1	1	39	32	15	10	0	0	0	stim016_stimuli_original_vehicles_planes_4.png	Q	0	0	0	83.1112931554671	83.3112968613859
24799.25	100	69	1	1	39	33	14	14	0	0	0	stim015_stimuli_original_vehicles_planes_3.png	V	0	0	0	83.5113042243756	83.7113074427471
24899.25	100	70	1	1	39	34	9	2	0	0	0	stim010_stimuli_original_vehicles_boats_2.png	C	0	0	0	83.9113169999328	84.1113287515473
24999.25	100	71	1	1	39	35	10	5	0	0	0	stim011_stimuli_original_vehicles_boats_3.png	F	0	0	0	84.3113653718028	84.5113320185337
25720	100	72	2	0	33	0	10	2	0	0	0	stim011_stimuli_original_vehicles_boats_3.png	C	0	0	0	87.1947371782735	87.3947374708951
25820	100	73	2	0	33	1	13	15	0	0	0	stim014_stimuli_original_vehicles_planes_2.png	Y	0	0	0	87.5947484909557	87.7947629245464
25920	100	74	2	0	33	2	4	10	0	0	0	stim005_stimuli_original_animals_fish_1.png	Q	0	0	0	87.9947578532156	88.1947627782356
26020	100	75	2	0	33	3	8	14	0	0	0	stim009_stimuli_original_vehicles_boats_1.png	V	0	0	0	88.3947696536779	88.5947738471441
26120	100	76	2	0	33	4	14	11	0	0	0	stim015_stimuli_original_vehicles_planes_3.png	R	0	0	0	88.7947851112112	88.9947785770055
26220	100	77	2	0	33	5	1	7	0	0	0	stim002_stimuli_original_animals_birds_2.png	J	0	0	0	89.1947969114408	89.3947908650152
26320	100	78	2	0	33	6	9	1	0	0	0	stim010_stimuli_original_vehicles_boats_2.png	B	0	0	0	89.5947992033325	89.7948021779303
26420	100	79	2	0	33	7	5	12	0	0	0	stim006_stimuli_original_animals_fish_2.png	T	0	0	0	89.9948066151701	90.1948105648626
26520	100	80	2	0	33	8	6	6	0	0	0	stim007_stimuli_original_animals_fish_3.png	G	0	0	0	90.3948184156325	90.5948218775447
26620	100	81	2	0	33	9	7	11	0	1	0	stim008_stimuli_original_animals_fish_4.png	R	0	0	0	90.7948343607131	90.9948297771625
26720	100	82	2	0	33	10	10	8	1	0	0	stim011_stimuli_original_vehicles_boats_3.png	K	0	0	0	91.194841528777	91.3948420649394
26820	100	83	2	0	33	11	3	11	0	1	0	stim004_stimuli_original_animals_birds_4.png	R	0	0	0	91.5948657633271	91.7948602044489
26920	100	84	2	0	33	12	10	4	1	0	1	stim011_stimuli_original_vehicles_boats_3.png	E	0	0	0	91.9948629350401	92.1948649343103
27020	100	85	2	0	33	13	11	0	0	0	0	stim012_stimuli_original_vehicles_boats_4.png	A	0	0	0	92.3948710784316	92.5948738090228
27120	100	86	2	0	33	14	15	9	0	0	0	stim016_stimuli_original_vehicles_planes_4.png	L	0	0	0	92.7948926310055	92.9949026759714
27220	100	87	2	0	33	15	0	13	0	0	0	stim001_stimuli_original_animals_birds_1.png	U	0	0	0	93.1948944353499	93.3948942401912
27320	100	88	2	0	33	16	12	3	0	0	0	stim013_stimuli_original_vehicles_planes_1.png	D	0	0	0	93.5949023347348	93.7949038464576
27420	100	89	2	0	33	17	2	5	0	0	0	stim003_stimuli_original_animals_birds_3.png	F	0	0	0	93.9949155980721	94.1949173533358
27520	100	90	2	0	33	18	5	2	0	0	0	stim006_stimuli_original_animals_fish_2.png	C	0	0	0	94.3951702325139	94.5949332986493
27620	100	91	2	0	33	19	3	12	0	0	0	stim004_stimuli_original_animals_birds_4.png	T	0	0	0	94.7949421245139	94.994939978933
27720	100	92	2	0	33	20	13	0	0	0	0	stim014_stimuli_original_vehicles_planes_2.png	A	0	0	0	95.1949717230164	95.3949742098339
27820	100	93	2	0	33	21	9	15	0	0	0	stim010_stimuli_original_vehicles_boats_2.png	Y	0	0	0	95.5949835232459	95.7949633358512
27920	100	94	2	0	33	22	0	11	0	0	0	stim001_stimuli_original_animals_birds_1.png	R	0	0	0	95.9949658226687	96.1949695285875
28020	100	95	2	0	33	23	4	10	0	1	0	stim005_stimuli_original_animals_fish_1.png	Q	0	0	0	96.3949785982259	96.594982060371
28120	100	96	2	0	33	24	11	3	1	0	0	stim012_stimuli_original_vehicles_boats_4.png	D	0	0	0	96.7949960064143	96.9949936170597
28220	100	97	2	0	33	25	8	10	0	1	0	stim009_stimuli_original_vehicles_boats_1.png	Q	0	0	0	97.1950046371203	97.395009074593
28320	100	98	2	0	33	26	11	7	1	0	1	stim012_stimuli_original_vehicles_boats_4.png	J	0	0	0	97.5950344793964	97.795014048228
28420	100	99	2	0	33	27	6	6	0	0	0	stim007_stimuli_original_animals_fish_3.png	G	0	0	0	97.9950216549914	98.1950214600656
28520	100	100	2	0	33	28	12	5	0	0	0	stim013_stimuli_original_vehicles_planes_1.png	F	0	0	0	98.3950300421566	98.5950330165215
28620	100	101	2	0	33	29	1	9	0	0	0	stim002_stimuli_original_animals_birds_2.png	L	0	0	0	98.7950423301663	98.9950501807034
28720	100	102	2	0	33	30	7	1	0	0	0	stim008_stimuli_original_animals_fish_4.png	B	0	0	0	99.1950541303959	99.3950514972676
28820	100	103	2	0	33	31	11	14	0	0	0	stim012_stimuli_original_vehicles_boats_4.png	V	0	0	0	99.5950622737873	99.7955377509352
28920	100	104	2	0	33	32	14	8	0	0	0	stim015_stimuli_original_vehicles_planes_3.png	K	0	0	0	99.9950787064154	100.19507558574
29020	100	105	2	0	33	33	10	4	0	0	0	stim011_stimuli_original_vehicles_boats_3.png	E	0	0	0	100.395081729628	100.595087386202
29120	100	106	2	0	33	34	15	13	0	0	0	stim016_stimuli_original_vehicles_planes_4.png	U	0	0	0	100.795103769982	100.995101868408
29220	100	107	2	0	33	35	2	10	0	0	0	stim003_stimuli_original_animals_birds_3.png	Q	0	0	0	101.195116301998	101.395108061144
32091	100	108	3	1	44	0	10	10	0	0	0	stim011_stimuli_original_vehicles_boats_3.png	Q	0	0	0	112.678731088759	112.878732600482
32191	100	109	3	1	44	1	5	6	0	0	0	stim006_stimuli_original_animals_fish_2.png	G	0	0	0	113.078738500597	113.278748789337
32291	100	110	3	1	44	2	4	8	0	0	0	stim005_stimuli_original_animals_fish_1.png	K	0	0	0	113.478759565856	113.678760346025
32391	100	111	3	1	44	3	2	13	0	0	0	stim003_stimuli_original_animals_birds_3.png	U	0	0	0	113.878767952789	114.07876239391
32491	100	112	3	1	44	4	7	4	0	0	0	stim008_stimuli_original_animals_fish_4.png	E	0	0	0	114.278783166548	114.478783702943
32591	100	113	3	1	44	5	1	12	0	0	0	stim002_stimuli_original_animals_birds_2.png	T	0	0	0	114.678816665895	114.87878989568
32691	100	114	3	1	44	6	14	7	0	0	0	stim015_stimuli_original_vehicles_planes_3.png	J	0	0	0	115.078794089146	115.278803646564
32791	100	115	3	1	44	7	6	15	0	0	0	stim007_stimuli_original_animals_fish_3.png	Y	0	0	0	115.47920549335	115.678828368895
32891	100	116	3	1	44	8	7	3	1	0	0	stim008_stimuli_original_animals_fish_4.png	D	0	0	0	115.878824272892	116.078818226233
32991	100	117	3	1	44	9	3	2	0	1	0	stim004_stimuli_original_animals_birds_4.png	C	0	0	0	116.278828027425	116.478826857172
33091	100	118	3	1	44	10	7	5	1	0	0	stim008_stimuli_original_animals_fish_4.png	F	0	0	0	116.678849580232	116.878838901408
33191	100	119	3	1	44	11	9	2	0	1	1	stim010_stimuli_original_vehicles_boats_2.png	C	0	0	0	117.078846995952	117.27885021409
33291	100	120	3	1	44	12	12	0	0	0	0	stim013_stimuli_original_vehicles_planes_1.png	A	0	0	0	117.47885757708	117.67886006413
33391	100	121	3	1	44	13	11	11	0	0	0	stim012_stimuli_original_vehicles_boats_4.png	R	0	0	0	117.878874741262	118.078899658751
33491	100	122	3	1	44	14	15	2	0	0	0	stim016_stimuli_original_vehicles_planes_4.png	C	0	0	0	118.278882884653	118.478887565667
33591	100	123	3	1	44	15	8	9	0	0	0	stim009_stimuli_original_vehicles_boats_1.png	L	0	0	0	118.678896391531	118.87889400241
33691	100	124	3	1	44	16	0	1	0	0	0	stim001_stimuli_original_animals_birds_1.png	B	0	0	0	119.078901852947	119.278911166592
33791	100	125	3	1	44	17	13	14	0	0	0	stim014_stimuli_original_vehicles_planes_2.png	V	0	0	0	119.478925599949	119.678918822203
33891	100	126	3	1	44	18	14	13	0	0	0	stim015_stimuli_original_vehicles_planes_3.png	U	0	0	0	119.878925697645	120.078923308291
33991	100	127	3	1	44	19	1	0	0	0	0	stim002_stimuli_original_animals_birds_2.png	A	0	0	0	120.278929452179	120.478942910442
34091	100	128	3	1	44	20	9	8	0	0	0	stim010_stimuli_original_vehicles_boats_2.png	K	0	0	0	120.678972704103	120.879165362101
34191	100	129	3	1	44	21	2	15	0	0	0	stim003_stimuli_original_animals_birds_3.png	Y	0	0	0	121.078951589996	121.278954564594
34291	100	130	3	1	44	22	11	11	0	0	0	stim012_stimuli_original_vehicles_boats_4.png	R	0	0	0	121.478966316208	121.678967096377
34391	100	131	3	1	44	23	0	12	0	0	0	stim001_stimuli_original_animals_birds_1.png	T	0	0	0	121.878981529968	122.078980359714
34491	100	132	3	1	44	24	2	9	1	0	0	stim003_stimuli_original_animals_birds_3.png	L	0	0	0	122.278989429353	122.478996792343
34591	100	133	3	1	44	25	5	7	0	1	0	stim006_stimuli_original_animals_fish_2.png	J	0	0	0	122.679006837308	122.879007373704
34691	100	134	3	1	44	26	2	3	1	0	0	stim003_stimuli_original_animals_birds_3.png	D	0	0	0	123.079010592075	123.279014297994
34791	100	135	3	1	44	27	3	7	0	1	1	stim004_stimuli_original_animals_birds_4.png	J	0	0	0	123.479028487578	123.679030730622
34891	100	136	3	1	44	28	15	6	0	0	0	stim016_stimuli_original_vehicles_planes_4.png	G	0	0	0	123.879034924088	124.079040092882
34991	100	137	3	1	44	29	7	14	0	0	0	stim008_stimuli_original_animals_fish_4.png	V	0	0	0	124.279042579699	124.479037264828
35091	100	138	3	1	44	30	12	1	0	0	0	stim013_stimuli_original_vehicles_planes_1.png	B	0	0	0	124.679052673513	124.879055160331
35191	100	139	3	1	44	31	4	7	0	0	0	stim005_stimuli_original_animals_fish_1.png	J	0	0	0	125.079065936618	125.27907037409
35291	100	140	3	1	44	32	13	2	0	0	0	stim014_stimuli_original_vehicles_planes_2.png	C	0	0	0	125.479082369478	125.679086075397
35391	100	141	3	1	44	33	8	4	0	0	0	stim009_stimuli_original_vehicles_boats_1.png	E	0	0	0	125.879091244191	126.079094218556
35491	100	142	3	1	44	34	6	5	0	0	0	stim007_stimuli_original_animals_fish_3.png	F	0	0	0	126.279101581546	126.479107969441
35591	100	143	3	1	44	35	10	10	0	0	0	stim011_stimuli_original_vehicles_boats_3.png	Q	0	0	0	126.679107774515	126.879108066903
37420.25	100	144	4	0	13	0	7	1	0	0	0	stim008_stimuli_original_animals_fish_4.png	B	0	0	0	133.995962515706	134.195967440726
37520.25	100	145	4	0	13	1	1	0	0	0	0	stim002_stimuli_original_animals_birds_2.png	A	0	0	0	134.395980167435	134.596001915401
37620.25	100	146	4	0	13	2	13	4	0	0	0	stim014_stimuli_original_vehicles_planes_2.png	E	0	0	0	134.795985141303	134.995988603216
37720.25	100	147	4	0	13	3	5	3	0	0	0	stim006_stimuli_original_animals_fish_2.png	D	0	0	0	135.196002305485	135.395998697029
37820.25	100	148	4	0	13	4	3	9	0	0	0	stim004_stimuli_original_animals_birds_4.png	L	0	0	0	135.596009961097	135.796010253485
37920.25	100	149	4	0	13	5	2	14	0	0	0	stim003_stimuli_original_animals_birds_3.png	V	0	0	0	135.996018591803	136.196016690228
38020.25	100	150	4	0	13	6	5	6	1	0	0	stim006_stimuli_original_animals_fish_2.png	G	0	0	0	136.396043314133	136.596041168552
38120.25	100	151	4	0	13	7	9	2	0	0	0	stim010_stimuli_original_vehicles_boats_2.png	C	0	0	0	136.796033659251	136.996038828045
38220.25	100	152	4	0	13	8	5	11	1	0	1	stim006_stimuli_original_animals_fish_2.png	R	a	137.387837419985	1	137.196057894034	137.396066476125
38320.25	100	153	4	0	13	9	10	12	0	0	0	stim011_stimuli_original_vehicles_boats_3.png	T	0	0	0	137.596077252412	137.796089979354
38420.25	100	154	4	0	13	10	8	9	0	1	0	stim009_stimuli_original_vehicles_boats_1.png	L	0	0	0	137.996082957601	138.196082762443
38520.25	100	155	4	0	13	11	4	10	0	0	0	stim005_stimuli_original_animals_fish_1.png	Q	0	0	0	138.39608817501	138.596094075358
38620.25	100	156	4	0	13	12	15	9	0	1	0	stim016_stimuli_original_vehicles_planes_4.png	L	0	0	0	138.796095586848	138.996100268094
38720.25	100	157	4	0	13	13	6	8	0	0	0	stim007_stimuli_original_animals_fish_3.png	K	0	0	0	139.196111044381	139.396118407371
38820.25	100	158	4	0	13	14	14	15	0	0	0	stim015_stimuli_original_vehicles_planes_3.png	Y	0	0	0	139.59612869611	139.796127525857
38920.25	100	159	4	0	13	15	11	13	0	0	0	stim012_stimuli_original_vehicles_boats_4.png	U	0	0	0	139.996131475549	140.196139326319
39020.25	100	160	4	0	13	16	0	5	0	0	0	stim001_stimuli_original_animals_birds_1.png	F	0	0	0	140.396150590386	140.596146006603
39120.25	100	161	4	0	13	17	12	7	0	0	0	stim013_stimuli_original_vehicles_planes_1.png	J	0	0	0	140.796150931623	140.99615341844
39220.25	100	162	4	0	13	18	7	12	0	0	0	stim008_stimuli_original_animals_fish_4.png	T	0	0	0	141.196161756758	141.396172777051
39320.25	100	163	4	0	13	19	5	0	0	0	0	stim006_stimuli_original_animals_fish_2.png	A	0	0	0	141.596178433392	141.796173605835
39420.25	100	164	4	0	13	20	13	11	0	0	0	stim014_stimuli_original_vehicles_planes_2.png	R	0	0	0	141.996182675706	142.196186869172
39520.25	100	165	4	0	13	21	15	14	0	0	0	stim016_stimuli_original_vehicles_planes_4.png	V	0	0	0	142.396203253185	142.596204033354
39620.25	100	166	4	0	13	22	8	6	0	0	0	stim009_stimuli_original_vehicles_boats_1.png	G	0	0	0	142.796210908797	142.996210957412
39720.5	100	167	4	0	13	23	9	15	1	0	0	stim010_stimuli_original_vehicles_boats_2.png	Y	0	0	0	143.196669368073	143.396224220749
39820.25	100	168	4	0	13	24	10	4	0	0	0	stim011_stimuli_original_vehicles_boats_3.png	E	0	0	0	143.596227195114	143.796226756414
39920.25	100	169	4	0	13	25	9	8	1	0	1	stim010_stimuli_original_vehicles_boats_2.png	K	0	0	0	143.996237045154	144.196240751073
40020.25	100	170	4	0	13	26	12	10	0	0	0	stim013_stimuli_original_vehicles_planes_1.png	Q	a	144.588023495395	1	144.396254940657	144.596281564794
40120.25	100	171	4	0	13	27	11	5	0	1	0	stim012_stimuli_original_vehicles_boats_4.png	F	0	0	0	144.796278443886	144.996267521288
40220.25	100	172	4	0	13	28	2	9	0	0	0	stim003_stimuli_original_animals_birds_3.png	L	0	0	0	145.196270495653	145.396274445578
40320.25	100	173	4	0	13	29	6	5	0	1	0	stim007_stimuli_original_animals_fish_3.png	F	0	0	0	145.596281808568	145.79627332394
40420.25	100	174	4	0	13	30	14	2	0	0	0	stim015_stimuli_original_vehicles_planes_3.png	C	0	0	0	145.996276786085	146.196286343271
40520.25	100	175	4	0	13	31	9	3	0	0	0	stim010_stimuli_original_vehicles_boats_2.png	D	0	0	0	146.396291024517	146.596293511335
40620.25	100	176	4	0	13	32	3	5	0	0	0	stim004_stimuli_original_animals_birds_4.png	F	a	146.988074061461	0	146.796308432473	146.996303117368
40720.25	100	177	4	0	13	33	4	13	0	0	0	stim005_stimuli_original_animals_fish_1.png	U	0	0	0	147.196339250077	147.396326376824
40820.25	100	178	4	0	13	34	0	1	0	0	0	stim001_stimuli_original_animals_birds_1.png	B	0	0	0	147.596338128438	147.796343541006
40920.25	100	179	4	0	13	35	1	7	0	0	0	stim002_stimuli_original_animals_birds_2.png	J	0	0	0	147.996351635549	148.196346808225
41645.25	100	180	5	1	35	0	13	6	0	0	0	stim014_stimuli_original_vehicles_planes_2.png	G	0	0	0	150.896425607381	151.09643175127
41745.25	100	181	5	1	35	1	0	1	0	0	0	stim001_stimuli_original_animals_birds_1.png	B	0	0	0	151.296429118142	151.496431117412
41845.25	100	182	5	1	35	2	1	3	0	0	0	stim002_stimuli_original_animals_birds_2.png	D	0	0	0	151.696442625253	151.896446087398
41945.25	100	183	5	1	35	3	11	11	0	0	0	stim012_stimuli_original_vehicles_boats_4.png	R	0	0	0	152.096452718833	152.296453743009
42045.25	100	184	5	1	35	4	4	12	0	0	0	stim005_stimuli_original_animals_fish_1.png	T	0	0	0	152.496463300195	152.696466031019
42145.25	100	185	5	1	35	5	12	0	0	0	0	stim013_stimuli_original_vehicles_planes_1.png	A	0	0	0	152.896471443586	153.096475149505
42245.25	100	186	5	1	35	6	7	14	0	0	0	stim008_stimuli_original_animals_fish_4.png	V	0	0	0	153.296474954346	153.496477684937
42345.25	100	187	5	1	35	7	3	8	0	0	0	stim004_stimuli_original_animals_birds_4.png	K	0	0	0	153.696482609957	153.896496799774
42445.25	100	188	5	1	35	8	15	2	0	0	0	stim016_stimuli_original_vehicles_planes_4.png	C	0	0	0	154.096511476906	154.296512744855
42545.25	100	189	5	1	35	9	7	13	1	0	0	stim008_stimuli_original_animals_fish_4.png	U	0	0	0	154.496513037477	154.696510648122
42645.5	100	190	5	1	35	10	9	9	0	0	0	stim010_stimuli_original_vehicles_boats_2.png	L	0	0	0	154.896521668183	155.096535126446
42745.5	100	191	5	1	35	11	7	12	1	1	0	stim008_stimuli_original_animals_fish_4.png	T	0	0	0	155.296537125716	155.496538393665
42845.5	100	192	5	1	35	12	8	5	0	0	0	stim009_stimuli_original_vehicles_boats_1.png	F	0	0	0	155.696545756655	155.896777668037
42945.5	100	193	5	1	35	13	10	12	0	1	1	stim011_stimuli_original_vehicles_boats_3.png	T	0	0	0	156.096565602813	156.296564188553
43045.5	100	194	5	1	35	14	6	15	0	0	0	stim007_stimuli_original_animals_fish_3.png	Y	a	156.688336205436	1	156.496569357347	156.696572575718
43145.5	100	195	5	1	35	15	5	7	0	0	0	stim006_stimuli_original_animals_fish_2.png	J	0	0	0	156.896578475833	157.096588277025
43245.5	100	196	5	1	35	16	14	4	0	0	0	stim015_stimuli_original_vehicles_planes_3.png	E	0	0	0	157.296589300968	157.496591787785
43345.5	100	197	5	1	35	17	2	10	0	0	0	stim003_stimuli_original_animals_birds_3.png	Q	0	0	0	157.696602808079	157.896600662498
43445.5	100	198	5	1	35	18	10	2	0	0	0	stim011_stimuli_original_vehicles_boats_3.png	C	0	0	0	158.096612170339	158.296618314227
43545.5	100	199	5	1	35	19	4	14	0	0	0	stim005_stimuli_original_animals_fish_1.png	V	0	0	0	158.496645425912	158.696624994744
43645.5	100	200	5	1	35	20	7	5	0	0	0	stim008_stimuli_original_animals_fish_4.png	F	0	0	0	158.896632845281	159.096635332098
43745.5	100	201	5	1	35	21	15	6	0	0	0	stim016_stimuli_original_vehicles_planes_4.png	G	0	0	0	159.296644158196	159.496647132561
43845.5	100	202	5	1	35	22	12	10	1	0	0	stim013_stimuli_original_vehicles_planes_1.png	Q	0	0	0	159.696654008003	159.896655763499
43945.5	100	203	5	1	35	23	5	8	0	0	0	stim006_stimuli_original_animals_fish_2.png	K	0	0	0	160.096666296013	160.296672927681
44045.5	100	204	5	1	35	24	12	7	1	1	0	stim013_stimuli_original_vehicles_planes_1.png	J	0	0	0	160.496676877374	160.696674488019
44145.5	100	205	5	1	35	25	9	9	0	0	0	stim010_stimuli_original_vehicles_boats_2.png	L	0	0	0	160.896686239634	161.096686532255
44245.5	100	206	5	1	35	26	13	7	0	1	1	stim014_stimuli_original_vehicles_planes_2.png	J	0	0	0	161.296704135137	161.496701502008
44345.5	100	207	5	1	35	27	2	15	0	0	0	stim003_stimuli_original_animals_birds_3.png	Y	0	0	0	161.696705695707	161.896710620495
44445.5	100	208	5	1	35	28	8	3	0	0	0	stim009_stimuli_original_vehicles_boats_1.png	D	0	0	0	162.096714570187	162.296724858927
44545.5	100	209	5	1	35	29	14	7	0	0	0	stim015_stimuli_original_vehicles_planes_3.png	J	0	0	0	162.49673587922	162.69673495274
44645.5	100	210	5	1	35	30	0	12	0	0	0	stim001_stimuli_original_animals_birds_1.png	T	0	0	0	162.896736708237	163.096740657929
44745.5	100	211	5	1	35	31	12	4	0	0	0	stim013_stimuli_original_vehicles_planes_1.png	E	a	163.28933231323	1	163.296777765732	163.496755383909
44845.5	100	212	5	1	35	32	11	11	0	0	0	stim012_stimuli_original_vehicles_boats_4.png	R	0	0	0	163.69676152803	163.896756456699
44945.5	100	213	5	1	35	33	3	1	0	0	0	stim004_stimuli_original_animals_birds_4.png	B	0	0	0	164.096759675071	164.296763868537
45045.5	100	214	5	1	35	34	1	0	0	0	0	stim002_stimuli_original_animals_birds_2.png	A	0	0	0	164.496772450628	164.696782495594
45145.5	100	215	5	1	35	35	6	13	0	0	0	stim007_stimuli_original_animals_fish_3.png	U	0	0	0	164.89678961481	165.096793564502
45816.25	100	216	6	0	42	0	10	2	0	0	0	stim011_stimuli_original_vehicles_boats_3.png	C	0	0	0	167.580189898144	167.780198968016
45916.25	100	217	6	0	42	1	3	3	0	0	0	stim004_stimuli_original_animals_birds_4.png	D	0	0	0	167.980208037654	168.180205648299
46016.25	100	218	6	0	42	2	1	0	0	0	0	stim002_stimuli_original_animals_birds_2.png	A	0	0	0	168.38021130464	168.580210865708
46116.25	100	219	6	0	42	3	6	11	0	0	0	stim007_stimuli_original_animals_fish_3.png	R	0	0	0	168.780217497377	168.98023388139
46216.25	100	220	6	0	42	4	11	5	0	0	0	stim012_stimuli_original_vehicles_boats_4.png	F	0	0	0	169.180238562636	169.380239586579
46316.25	100	221	6	0	42	5	10	9	1	0	0	stim011_stimuli_original_vehicles_boats_3.png	L	0	0	0	169.580248899991	169.780257726088
46416.25	100	222	6	0	42	6	14	1	0	0	0	stim015_stimuli_original_vehicles_planes_3.png	B	0	0	0	169.980256799608	170.180264893919
46516.25	100	223	6	0	42	7	10	14	1	0	1	stim011_stimuli_original_vehicles_boats_3.png	V	0	0	0	170.380273232237	170.580262065865
46616.25	100	224	6	0	42	8	8	6	0	0	0	stim009_stimuli_original_vehicles_boats_1.png	G	0	0	0	170.780275036581	170.980291420361
46716.25	100	225	6	0	42	9	0	15	0	1	0	stim001_stimuli_original_animals_birds_1.png	Y	a	171.172851868207	1	171.180291225435	171.380293468479
46816.25	100	226	6	0	42	10	13	7	0	0	0	stim014_stimuli_original_vehicles_planes_2.png	J	0	0	0	171.580299368594	171.780310145114
46916.25	100	227	6	0	42	11	9	15	0	1	0	stim010_stimuli_original_vehicles_boats_2.png	Y	0	0	0	171.980318483198	172.180312680546
47016.25	100	228	6	0	42	12	4	12	0	0	0	stim005_stimuli_original_animals_fish_1.png	T	0	0	0	172.380325407488	172.580323261907
47116.25	100	229	6	0	42	13	15	13	0	0	0	stim016_stimuli_original_vehicles_planes_4.png	U	0	0	0	172.780340621248	172.980342376744
47216.25	100	230	6	0	42	14	7	15	0	0	0	stim008_stimuli_original_animals_fish_4.png	Y	0	0	0	173.180343156913	173.380345643731
47316.5	100	231	6	0	42	15	2	4	0	0	0	stim003_stimuli_original_animals_birds_3.png	E	0	0	0	173.580750416033	173.780358175514
47416.25	100	232	6	0	42	16	12	8	0	0	0	stim013_stimuli_original_vehicles_planes_1.png	K	0	0	0	173.980361393653	174.180369488196
47516.25	100	233	6	0	42	17	5	10	0	0	0	stim006_stimuli_original_animals_fish_2.png	Q	0	0	0	174.380373437889	174.580381532433
47616.25	100	234	6	0	42	18	10	5	0	0	0	stim011_stimuli_original_vehicles_boats_3.png	F	0	0	0	174.780386701226	174.98039138224
47716.25	100	235	6	0	42	19	8	12	0	0	0	stim009_stimuli_original_vehicles_boats_1.png	T	0	0	0	175.180399720557	175.380399525631
47816.25	100	236	6	0	42	20	4	2	0	0	0	stim005_stimuli_original_animals_fish_1.png	C	0	0	0	175.58042102959	175.780404255493
47916.25	100	237	6	0	42	21	15	7	0	0	0	stim016_stimuli_original_vehicles_planes_4.png	J	0	0	0	175.98041259381	176.180421175901
48016.25	100	238	6	0	42	22	13	15	0	0	0	stim014_stimuli_original_vehicles_planes_2.png	Y	0	0	0	176.380415617023	176.580420298036
48116.25	100	239	6	0	42	23	12	4	0	0	0	stim013_stimuli_original_vehicles_planes_1.png	E	0	0	0	176.780430586776	176.980432098499
48216.25	100	240	6	0	42	24	15	9	1	0	0	stim016_stimuli_original_vehicles_planes_4.png	L	0	0	0	177.18043775484	177.380452432204
48316.25	100	241	6	0	42	25	7	13	0	0	0	stim008_stimuli_original_animals_fish_4.png	U	0	0	0	177.580453943927	177.780457405839
48416.25	100	242	6	0	42	26	15	0	1	0	1	stim016_stimuli_original_vehicles_planes_4.png	A	0	0	0	177.980464769062	178.180462379707
48516.25	100	243	6	0	42	27	6	8	0	0	0	stim007_stimuli_original_animals_fish_3.png	K	a	178.589257414918	1	178.380467060721	178.580472473288
48616.25	100	244	6	0	42	28	14	10	0	1	0	stim015_stimuli_original_vehicles_planes_3.png	Q	0	0	0	178.780479592504	178.980906551704
48716.25	100	245	6	0	42	29	1	14	0	0	0	stim002_stimuli_original_animals_birds_2.png	V	0	0	0	179.180492368294	179.380494855111
48816.25	100	246	6	0	42	30	9	10	0	1	0	stim010_stimuli_original_vehicles_boats_2.png	Q	0	0	0	179.580500511453	179.780504704919
48916.25	100	247	6	0	42	31	5	11	0	0	0	stim006_stimuli_original_animals_fish_2.png	R	0	0	0	179.980521820486	180.180525770178
49016.25	100	248	6	0	42	32	11	6	0	0	0	stim012_stimuli_original_vehicles_boats_4.png	G	0	0	0	180.38053800934	180.580536351306
49116.25	100	249	6	0	42	33	0	1	0	0	0	stim001_stimuli_original_animals_birds_1.png	B	0	0	0	180.780547127826	180.98055522237
49216.25	100	250	6	0	42	34	3	3	0	0	0	stim004_stimuli_original_animals_birds_4.png	D	0	0	0	181.180561366258	181.38055580738
49316.25	100	251	6	0	42	35	2	10	0	0	0	stim003_stimuli_original_animals_birds_3.png	Q	0	0	0	181.580567802768	181.780571508687
49908	100	252	7	1	19	0	4	10	0	0	0	stim005_stimuli_original_animals_fish_1.png	Q	0	0	0	183.947301078355	184.147312829969
50008	100	253	7	1	19	1	10	1	0	0	0	stim011_stimuli_original_vehicles_boats_3.png	B	0	0	0	184.34732092428	184.547305369284
50108	100	254	7	1	19	2	6	14	0	0	0	stim007_stimuli_original_animals_fish_3.png	V	0	0	0	184.747314438922	184.947314000223
50208	100	255	7	1	19	3	1	3	0	0	0	stim002_stimuli_original_animals_birds_2.png	D	0	0	0	185.14733062801	185.347329457756
50308	100	256	7	1	19	4	13	15	0	0	0	stim014_stimuli_original_vehicles_planes_2.png	Y	0	0	0	185.547332188347	185.747754514916
50408	100	257	7	1	19	5	0	12	0	0	0	stim001_stimuli_original_animals_birds_1.png	T	0	0	0	185.947347158333	186.147350620246
50508	100	258	7	1	19	6	7	0	0	0	0	stim008_stimuli_original_animals_fish_4.png	A	0	0	0	186.347351888195	186.547359494958
50608	100	259	7	1	19	7	9	9	1	0	0	stim010_stimuli_original_vehicles_boats_2.png	L	0	0	0	186.747370515252	186.947378122015
50708	100	260	7	1	19	8	12	6	0	0	0	stim013_stimuli_original_vehicles_planes_1.png	G	0	0	0	187.147383290809	187.347382364329
50808	100	261	7	1	19	9	9	12	1	1	0	stim010_stimuli_original_vehicles_boats_2.png	T	0	0	0	187.547393140616	187.747397334315
50908	100	262	7	1	19	10	14	8	0	0	0	stim015_stimuli_original_vehicles_planes_3.png	K	0	0	0	187.947408354376	188.147412791615
51008	100	263	7	1	19	11	5	12	0	1	1	stim006_stimuli_original_animals_fish_2.png	T	0	0	0	188.347418204183	188.54741459596
51108	100	264	7	1	19	12	8	11	0	0	0	stim009_stimuli_original_vehicles_boats_1.png	R	0	0	0	188.747426591348	188.947454434354
51208	100	265	7	1	19	13	2	2	0	0	0	stim003_stimuli_original_animals_birds_3.png	C	0	0	0	189.147439366905	189.347441609949
51308	100	266	7	1	19	14	9	5	0	0	0	stim010_stimuli_original_vehicles_boats_2.png	F	0	0	0	189.547453361563	189.747450240888
51408	100	267	7	1	19	15	3	7	0	0	0	stim004_stimuli_original_animals_birds_4.png	J	0	0	0	189.947451752378	190.147451801226
51508	100	268	7	1	19	16	11	13	0	0	0	stim012_stimuli_original_vehicles_boats_4.png	U	0	0	0	190.347457945114	190.547461895039
51608	100	269	7	1	19	17	15	4	0	0	0	stim016_stimuli_original_vehicles_planes_4.png	E	0	0	0	190.747499977937	190.94750441541
51708	100	270	7	1	19	18	4	15	0	0	0	stim005_stimuli_original_animals_fish_1.png	Y	0	0	0	191.147496418329	191.347489396576
51808	100	271	7	1	19	19	13	11	0	0	0	stim014_stimuli_original_vehicles_planes_2.png	R	0	0	0	191.547501879744	191.747516069328
51908	100	272	7	1	19	20	7	3	0	0	0	stim008_stimuli_original_animals_fish_4.png	D	0	0	0	191.947506365832	192.147515923018
52008	100	273	7	1	19	21	5	9	0	0	0	stim006_stimuli_original_animals_fish_2.png	L	0	0	0	192.347524992889	192.547525773058
52108	100	274	7	1	19	22	2	2	0	0	0	stim003_stimuli_original_animals_birds_3.png	C	0	0	0	192.747551665641	192.947540742811
52208	100	275	7	1	19	23	11	8	0	0	0	stim012_stimuli_original_vehicles_boats_4.png	K	0	0	0	193.147546886932	193.347545716679
52308	100	276	7	1	19	24	12	5	1	0	0	stim013_stimuli_original_vehicles_planes_1.png	F	0	0	0	193.547569658607	193.747555566486
52408	100	277	7	1	19	25	8	14	0	0	0	stim009_stimuli_original_vehicles_boats_1.png	V	0	0	0	193.947564148577	194.147563222097
52508	100	278	7	1	19	26	12	9	1	1	0	stim013_stimuli_original_vehicles_planes_1.png	L	0	0	0	194.347591308877	194.547578679631
52608	100	279	7	1	19	27	6	12	0	0	0	stim007_stimuli_original_animals_fish_3.png	T	0	0	0	194.7475865304	194.947608521907
52708	100	280	7	1	19	28	9	9	0	1	1	stim010_stimuli_original_vehicles_boats_2.png	L	a	195.140235529514	1	195.14760125638	195.347602768103
52808	100	281	7	1	19	29	0	7	0	0	0	stim001_stimuli_original_animals_birds_1.png	J	0	0	0	195.547602572944	195.747605547542
52908	100	282	7	1	19	30	12	0	0	0	0	stim013_stimuli_original_vehicles_planes_1.png	A	0	0	0	195.947620712453	196.147622711724
53008.25	100	283	7	1	19	31	15	13	0	0	0	stim016_stimuli_original_vehicles_planes_4.png	U	0	0	0	196.347884367919	196.547634511953
53108	100	284	7	1	19	32	3	1	0	0	0	stim004_stimuli_original_animals_birds_4.png	B	0	0	0	196.747637974098	196.947643630439
53208.25	100	285	7	1	19	33	14	6	0	0	0	stim015_stimuli_original_vehicles_planes_3.png	G	0	0	0	197.147651724983	197.347653480479
53308.25	100	286	7	1	19	34	1	10	0	0	0	stim002_stimuli_original_animals_birds_2.png	Q	0	0	0	197.547662793892	197.747688198928
53408.25	100	287	7	1	19	35	10	4	0	0	0	stim011_stimuli_original_vehicles_boats_3.png	E	0	0	0	197.947666792432	198.147680006921
58983.25	100	288	8	0	4	0	3	0	0	0	0	stim004_stimuli_original_animals_birds_4.png	A	0	0	0	220.248278705403	220.448255836032
59083.25	100	289	8	0	4	1	7	5	0	0	0	stim008_stimuli_original_animals_fish_4.png	F	0	0	0	220.64826417435	220.848265442066
59183.25	100	290	8	0	4	2	5	3	0	0	0	stim006_stimuli_original_animals_fish_2.png	D	0	0	0	221.048267441336	221.248287969967
59283.25	100	291	8	0	4	3	2	2	0	0	0	stim003_stimuli_original_animals_birds_3.png	C	0	0	0	221.448287287494	221.64829733246
59383.25	100	292	8	0	4	4	8	4	0	0	0	stim009_stimuli_original_vehicles_boats_1.png	E	0	0	0	221.8483017697	222.04830376897
59483.25	100	293	8	0	4	5	6	13	0	0	0	stim007_stimuli_original_animals_fish_3.png	U	0	0	0	222.248312107287	222.448311912129
59583.25	100	294	8	0	4	6	14	1	0	0	0	stim015_stimuli_original_vehicles_planes_3.png	B	0	0	0	222.648321713321	222.848330539186
59683.5	100	295	8	0	4	7	11	8	0	1	0	stim012_stimuli_original_vehicles_boats_4.png	K	0	0	0	223.048781635473	223.24834965379
59783.25	100	296	8	0	4	8	6	12	1	0	0	stim007_stimuli_original_animals_fish_3.png	T	0	0	0	223.448343363591	223.648346825736
59883.25	100	297	8	0	4	9	0	8	0	1	0	stim001_stimuli_original_animals_birds_1.png	K	0	0	0	223.84835808957	224.048359601293
59983.25	100	298	8	0	4	10	6	10	1	0	1	stim007_stimuli_original_animals_fish_3.png	Q	0	0	0	224.24837037758	224.44836408738
60083.25	100	299	8	0	4	11	9	15	0	0	0	stim010_stimuli_original_vehicles_boats_2.png	Y	a	224.84013902978	1	224.648373400792	224.848377838265
60183.25	100	300	8	0	4	12	13	9	0	0	0	stim014_stimuli_original_vehicles_planes_2.png	L	0	0	0	225.04838666413	225.24839402712
60283.25	100	301	8	0	4	13	10	7	0	0	0	stim011_stimuli_original_vehicles_boats_3.png	J	0	0	0	225.448395295069	225.6484158237
60383.25	100	302	8	0	4	14	15	8	0	0	0	stim016_stimuli_original_vehicles_planes_4.png	K	0	0	0	225.848405876197	226.048411288764
60483.25	100	303	8	0	4	15	4	6	0	0	0	stim005_stimuli_original_animals_fish_1.png	G	0	0	0	226.248420114862	226.448419188382
60583.25	100	304	8	0	4	16	12	14	0	0	0	stim013_stimuli_original_vehicles_planes_1.png	V	0	0	0	226.648424357176	226.848426112439
60683.25	100	305	8	0	4	17	1	11	0	0	0	stim002_stimuli_original_animals_birds_2.png	R	0	0	0	227.048458831618	227.248449371895
60783.25	100	306	8	0	4	18	11	1	0	0	0	stim012_stimuli_original_vehicles_boats_4.png	B	0	0	0	227.448456247337	227.648457027506
60883.25	100	307	8	0	4	19	14	12	0	0	0	stim015_stimuli_original_vehicles_planes_3.png	T	0	0	0	227.848461464746	228.048463951796
60983.25	100	308	8	0	4	20	6	4	0	0	0	stim007_stimuli_original_animals_fish_3.png	E	0	0	0	228.248479360482	228.448715660488
61083.25	100	309	8	0	4	21	8	15	0	0	0	stim009_stimuli_original_vehicles_boats_1.png	Y	0	0	0	228.648483846569	228.848485602066
61183.25	100	310	8	0	4	22	7	10	0	0	0	stim008_stimuli_original_animals_fish_4.png	Q	0	0	0	229.048492965056	229.248500084272
61283.25	100	311	8	0	4	23	9	13	0	0	0	stim010_stimuli_original_vehicles_boats_2.png	U	0	0	0	229.448502814863	229.648507983657
61383.25	100	312	8	0	4	24	15	9	0	0	0	stim016_stimuli_original_vehicles_planes_4.png	L	0	0	0	229.84851315245	230.048519784119
61483.25	100	313	8	0	4	25	10	6	0	1	0	stim011_stimuli_original_vehicles_boats_3.png	G	0	0	0	230.248533973703	230.448536216747
61583.25	100	314	8	0	4	26	8	0	1	0	0	stim009_stimuli_original_vehicles_boats_1.png	A	0	0	0	230.648535046494	230.848537533311
61683.25	100	315	8	0	4	27	12	6	0	1	0	stim013_stimuli_original_vehicles_planes_1.png	G	0	0	0	231.048547334503	231.248577128164
61783.25	100	316	8	0	4	28	8	11	1	0	1	stim009_stimuli_original_vehicles_boats_1.png	R	0	0	0	231.448563767364	231.64856137801
61883.25	100	317	8	0	4	29	1	14	0	0	0	stim002_stimuli_original_animals_birds_2.png	V	0	0	0	231.848572154297	232.048562207026
61983.25	100	318	8	0	4	30	13	6	0	0	0	stim014_stimuli_original_vehicles_planes_2.png	G	0	0	0	232.24858176033	232.448576933006
62083.25	100	319	8	0	4	31	4	8	0	0	0	stim005_stimuli_original_animals_fish_1.png	K	0	0	0	232.648584052222	232.848582150647
62183.25	100	320	8	0	4	32	2	2	0	0	0	stim003_stimuli_original_animals_birds_3.png	C	0	0	0	233.048595608911	233.248595413752
62283.25	100	321	8	0	4	33	3	5	0	0	0	stim004_stimuli_original_animals_birds_4.png	F	0	0	0	233.448609603569	233.648611602606
62383.25	100	322	8	0	4	34	5	7	0	0	0	stim006_stimuli_original_animals_fish_2.png	J	0	0	0	233.848625304876	234.048622671748
62483.25	100	323	8	0	4	35	0	3	0	0	0	stim001_stimuli_original_animals_birds_1.png	D	0	0	0	234.248634179356	234.448636422399
63191.75	100	324	9	1	12	0	1	11	0	0	0	stim002_stimuli_original_animals_birds_2.png	R	0	0	0	237.082036754582	237.282069473993
63291.75	100	325	9	1	12	1	0	12	0	0	0	stim001_stimuli_original_animals_birds_1.png	T	0	0	0	237.482052943669	237.682048603892
63391.75	100	326	9	1	12	2	4	14	0	0	0	stim005_stimuli_original_animals_fish_1.png	V	0	0	0	237.882062062155	238.082060160348
63491.75	100	327	9	1	12	3	7	13	0	0	0	stim008_stimuli_original_animals_fish_4.png	U	0	0	0	238.282074350165	238.482076593209
63591.75	100	328	9	1	12	4	5	3	1	0	0	stim006_stimuli_original_animals_fish_2.png	D	0	0	0	238.68208810105	238.882082542172
63691.75	100	329	9	1	12	5	3	5	0	0	0	stim004_stimuli_original_animals_birds_4.png	F	0	0	0	239.082090392709	239.282097024377
63791.75	100	330	9	1	12	6	5	8	1	0	0	stim006_stimuli_original_animals_fish_2.png	K	0	0	0	239.482109995093	239.682134668576
63891.75	100	331	9	1	12	7	2	1	0	0	0	stim003_stimuli_original_animals_birds_3.png	B	0	0	0	239.882129353471	240.082114773802
63991.75	100	332	9	1	12	8	15	15	0	0	0	stim016_stimuli_original_vehicles_planes_4.png	Y	0	0	0	240.282146030106	240.482149492251
64091.75	100	333	9	1	12	9	6	7	0	0	0	stim007_stimuli_original_animals_fish_3.png	J	0	0	0	240.682137106545	240.882135448745
64191.75	100	334	9	1	12	10	10	6	0	0	0	stim011_stimuli_original_vehicles_boats_3.png	G	0	0	0	241.082151832758	241.282145298552
64291.75	100	335	9	1	12	11	14	1	0	1	0	stim015_stimuli_original_vehicles_planes_3.png	B	0	0	0	241.482158025494	241.682157830335
64391.75	100	336	9	1	12	12	9	2	0	0	0	stim010_stimuli_original_vehicles_boats_2.png	C	0	0	0	241.882164949784	242.082166461274
64491.75	100	337	9	1	12	13	12	1	0	1	1	stim013_stimuli_original_vehicles_planes_1.png	B	0	0	0	242.28217358049	242.482176798861
64591.75	100	338	9	1	12	14	5	9	0	0	0	stim006_stimuli_original_animals_fish_2.png	L	0	0	0	242.682192207547	242.882192743942
64691.75	100	339	9	1	12	15	13	4	0	0	0	stim014_stimuli_original_vehicles_planes_2.png	E	0	0	0	243.082202301361	243.282203569077
64791.75	100	340	9	1	12	16	8	0	0	0	0	stim009_stimuli_original_vehicles_boats_1.png	A	0	0	0	243.482213857817	243.682218782837
64891.75	100	341	9	1	12	17	11	10	0	0	0	stim012_stimuli_original_vehicles_boats_4.png	Q	0	0	0	243.88224467542	244.082246918464
64991.75	100	342	9	1	12	18	10	11	0	0	0	stim011_stimuli_original_vehicles_boats_3.png	R	0	0	0	244.282252818579	244.482239214005
65091.75	100	343	9	1	12	19	0	8	0	0	0	stim001_stimuli_original_animals_birds_1.png	K	0	0	0	244.682242188603	244.882240286795
65191.75	100	344	9	1	12	20	4	13	0	0	0	stim005_stimuli_original_animals_fish_1.png	U	0	0	0	245.082254476612	245.282254769001
65291.75	100	345	9	1	12	21	9	5	0	0	0	stim010_stimuli_original_vehicles_boats_2.png	F	0	0	0	245.482267008396	245.682271201862
65391.75	100	346	9	1	12	22	1	12	1	0	0	stim002_stimuli_original_animals_birds_2.png	T	0	0	0	245.882279296406	246.082277638372
65491.75	100	347	9	1	12	23	2	9	0	0	0	stim003_stimuli_original_animals_birds_3.png	L	0	0	0	246.28259561467	246.482280661585
65591.75	100	348	9	1	12	24	1	14	1	0	0	stim002_stimuli_original_animals_birds_2.png	V	0	0	0	246.682283148402	246.882283441024
65691.75	100	349	9	1	12	25	6	10	0	0	0	stim007_stimuli_original_animals_fish_3.png	Q	0	0	0	247.082302263239	247.282305481378
65791.75	100	350	9	1	12	26	7	6	0	0	0	stim008_stimuli_original_animals_fish_4.png	G	0	0	0	247.482307968196	247.68232264556
65891.75	100	351	9	1	12	27	15	15	0	0	0	stim016_stimuli_original_vehicles_planes_4.png	Y	0	0	0	247.882337079151	248.082332739374
65991.75	100	352	9	1	12	28	1	2	0	0	0	stim002_stimuli_original_animals_birds_2.png	C	a	248.489334800048	0	248.282343759434	248.482347709127
66091.75	100	353	9	1	12	29	8	5	0	1	0	stim009_stimuli_original_vehicles_boats_1.png	F	0	0	0	248.682347026654	248.882348050596
66191.75	100	354	9	1	12	30	5	3	0	0	0	stim006_stimuli_original_animals_fish_2.png	D	0	0	0	249.082358826883	249.282369115623
66291.75	100	355	9	1	12	31	3	5	0	1	1	stim004_stimuli_original_animals_birds_4.png	F	0	0	0	249.482385987416	249.682361411396
66391.75	100	356	9	1	12	32	13	7	0	0	0	stim014_stimuli_original_vehicles_planes_2.png	J	0	0	0	249.882370237261	250.082373699406
66491.75	100	357	9	1	12	33	14	4	0	0	0	stim015_stimuli_original_vehicles_planes_3.png	E	0	0	0	250.282384719467	250.482380135916
66591.75	100	358	9	1	12	34	12	0	0	0	0	stim013_stimuli_original_vehicles_planes_1.png	A	0	0	0	250.682387011359	250.882400225848
66691.75	100	359	9	1	12	35	11	1	0	0	0	stim012_stimuli_original_vehicles_boats_4.png	B	0	0	0	251.082406857284	251.282412026078
67821	100	360	10	0	41	0	8	3	0	0	0	stim009_stimuli_original_vehicles_boats_1.png	D	0	0	0	255.599209228298	255.79920123145
67921	100	361	10	0	41	1	10	10	0	0	0	stim011_stimuli_original_vehicles_boats_3.png	Q	0	0	0	255.999210301088	256.199215713656
68021	100	362	10	0	41	2	15	2	0	0	0	stim016_stimuli_original_vehicles_planes_4.png	C	0	0	0	256.399226246402	256.599223369267
68121	100	363	10	0	41	3	5	4	0	0	0	stim006_stimuli_original_animals_fish_2.png	E	0	0	0	256.799230976263	256.999233950628
68221	100	364	10	0	41	4	7	12	0	0	0	stim008_stimuli_original_animals_fish_4.png	T	0	0	0	257.199243264273	257.39924867684
68321	100	365	10	0	41	5	1	13	0	0	0	stim002_stimuli_original_animals_birds_2.png	U	0	0	0	257.599252138752	257.799269010546
68421	100	366	10	0	41	6	3	5	0	0	0	stim004_stimuli_original_animals_birds_4.png	F	0	0	0	257.99926247634	258.199262037408
68521	100	367	10	0	41	7	11	9	0	0	0	stim012_stimuli_original_vehicles_boats_4.png	L	0	0	0	258.399276227225	258.599275056971
68621	100	368	10	0	41	8	6	14	0	1	0	stim007_stimuli_original_animals_fish_3.png	V	0	0	0	258.799279737985	258.999282225035
68721	100	369	10	0	41	9	14	11	0	0	0	stim015_stimuli_original_vehicles_planes_3.png	R	0	0	0	259.199284955626	259.399283053819
68821	100	370	10	0	41	10	11	14	1	1	0	stim012_stimuli_original_vehicles_boats_4.png	V	0	0	0	259.599290417042	259.799292903859
68921	100	371	10	0	41	11	0	1	0	0	0	stim001_stimuli_original_animals_birds_1.png	B	0	0	0	259.999299047748	260.19930299744
69021	100	372	10	0	41	12	11	6	1	0	1	stim012_stimuli_original_vehicles_boats_4.png	G	0	0	0	260.399312067311	260.599529837724
69121	100	373	10	0	41	13	13	14	0	0	0	stim014_stimuli_original_vehicles_planes_2.png	V	0	0	0	260.799334595213	260.999338788679
69221	100	374	10	0	41	14	9	7	0	0	0	stim010_stimuli_original_vehicles_boats_2.png	J	a	261.391113731079	1	261.199346151669	261.39935473376
69321	100	375	10	0	41	15	12	15	0	0	0	stim013_stimuli_original_vehicles_planes_1.png	Y	0	0	0	261.599358439678	261.799358488526
69421	100	376	10	0	41	16	4	8	0	0	0	stim005_stimuli_original_animals_fish_1.png	K	0	0	0	261.999365363969	262.19936809456
69521	100	377	10	0	41	17	2	0	0	0	0	stim003_stimuli_original_animals_birds_3.png	A	0	0	0	262.399381309049	262.599376969272
69621	100	378	10	0	41	18	0	2	0	0	0	stim001_stimuli_original_animals_birds_1.png	C	0	0	0	262.799383844715	262.999388769735
69721	100	379	10	0	41	19	8	4	0	0	0	stim009_stimuli_original_vehicles_boats_1.png	E	0	0	0	263.199396132724	263.399399351096
69821	100	380	10	0	41	20	15	12	0	0	0	stim016_stimuli_original_vehicles_planes_4.png	T	0	0	0	263.599411834031	263.799413833302
69921	100	381	10	0	41	21	7	9	0	0	0	stim008_stimuli_original_animals_fish_4.png	L	0	0	0	263.999419245869	264.199444894679
70021	100	382	10	0	41	22	14	13	0	0	0	stim015_stimuli_original_vehicles_planes_3.png	U	0	0	0	264.399440310895	264.599441822618
70121	100	383	10	0	41	23	6	11	0	1	0	stim007_stimuli_original_animals_fish_3.png	R	0	0	0	264.799444309436	264.999445821159
70221	100	384	10	0	41	24	1	0	0	0	0	stim002_stimuli_original_animals_birds_2.png	A	0	0	0	265.199449039297	265.39945298899
70321	100	385	10	0	41	25	14	11	1	1	0	stim015_stimuli_original_vehicles_planes_3.png	R	0	0	0	265.599467910128	265.799466496101
70421	100	386	10	0	41	26	11	14	0	0	0	stim012_stimuli_original_vehicles_boats_4.png	V	0	0	0	265.999477272388	266.19947878411
70521	100	387	10	0	41	27	14	6	1	0	1	stim015_stimuli_original_vehicles_planes_3.png	G	0	0	0	266.399481270928	266.599485952174
70621	100	388	10	0	41	28	9	11	0	0	0	stim010_stimuli_original_vehicles_boats_2.png	R	a	266.806241228944	1	266.799494290492	266.999499459052
70721	100	389	10	0	41	29	5	3	0	0	0	stim006_stimuli_original_animals_fish_2.png	D	0	0	0	267.199503408978	267.399506383343
70821	100	390	10	0	41	30	13	1	0	0	0	stim014_stimuli_original_vehicles_planes_2.png	B	0	0	0	267.599510820583	267.799527204596
70921	100	391	10	0	41	31	12	7	0	0	0	stim013_stimuli_original_vehicles_planes_1.png	J	0	0	0	267.999522864819	268.199533153558
71021	100	392	10	0	41	32	4	5	0	0	0	stim005_stimuli_original_animals_fish_1.png	F	0	0	0	268.399555389071	268.599540321622
71121	100	393	10	0	41	33	2	15	0	0	0	stim003_stimuli_original_animals_birds_3.png	Y	0	0	0	268.799548416166	268.999547489686
71221	100	394	10	0	41	34	10	10	0	0	0	stim011_stimuli_original_vehicles_boats_3.png	Q	0	0	0	269.199558022199	269.399563190993
71321	100	395	10	0	41	35	3	8	0	0	0	stim004_stimuli_original_animals_birds_4.png	K	0	0	0	269.599566653138	269.799581574276
72312.75	100	396	11	1	26	0	15	11	0	0	0	stim016_stimuli_original_vehicles_planes_4.png	R	0	0	0	273.566340790829	273.766342790099
72412.75	100	397	11	1	26	1	11	8	0	0	0	stim012_stimuli_original_vehicles_boats_4.png	K	0	0	0	273.966370389331	274.166373851476
72512.75	100	398	11	1	26	2	14	13	0	0	0	stim015_stimuli_original_vehicles_planes_3.png	U	0	0	0	274.366360246902	274.566389065236
72612.75	100	399	11	1	26	3	12	3	0	0	0	stim013_stimuli_original_vehicles_planes_1.png	D	0	0	0	274.766374241561	274.966376972152
72712.75	100	400	11	1	26	4	6	2	0	0	0	stim007_stimuli_original_animals_fish_3.png	C	0	0	0	275.166380190523	275.366383896442
72812.75	100	401	11	1	26	5	9	7	1	0	0	stim010_stimuli_original_vehicles_boats_2.png	J	0	0	0	275.566392722307	275.766395940678
72912.75	100	402	11	1	26	6	5	5	0	0	0	stim006_stimuli_original_animals_fish_2.png	F	0	0	0	275.966409155168	276.166403840063
73012.75	100	403	11	1	26	7	9	6	1	0	0	stim010_stimuli_original_vehicles_boats_2.png	G	0	0	0	276.366413641255	276.566418566043
73112.75	100	404	11	1	26	8	13	15	0	0	0	stim014_stimuli_original_vehicles_planes_2.png	Y	0	0	0	276.766424710164	276.966422320809
73212.75	100	405	11	1	26	9	1	0	0	0	0	stim002_stimuli_original_animals_birds_2.png	A	0	0	0	277.166428708471	277.366459233453
73312.75	100	406	11	1	26	10	3	10	0	0	0	stim004_stimuli_original_animals_birds_4.png	Q	0	0	0	277.566450505052	277.766447140602
73412.75	100	407	11	1	26	11	8	4	0	0	0	stim009_stimuli_original_vehicles_boats_1.png	E	0	0	0	277.96644962742	278.166451382916
73512.75	100	408	11	1	26	12	9	13	0	1	0	stim010_stimuli_original_vehicles_boats_2.png	U	0	0	0	278.366454845062	278.566456600325
73612.75	100	409	11	1	26	13	10	12	0	0	0	stim011_stimuli_original_vehicles_boats_3.png	T	0	0	0	278.766475422541	278.966473764507
73712.75	100	410	11	1	26	14	0	13	0	1	1	stim001_stimuli_original_animals_birds_1.png	U	0	0	0	279.166486491449	279.366480932571
73813	100	411	11	1	26	15	4	9	0	0	0	stim005_stimuli_original_animals_fish_1.png	L	0	0	0	279.566929103108	279.766492976807
73912.75	100	412	11	1	26	16	2	14	0	0	0	stim003_stimuli_original_animals_birds_3.png	V	0	0	0	279.966497414047	280.166502095293
74012.75	100	413	11	1	26	17	7	1	0	0	0	stim008_stimuli_original_animals_fish_4.png	B	0	0	0	280.366510677384	280.566518284148
74112.75	100	414	11	1	26	18	1	7	0	0	0	stim002_stimuli_original_animals_birds_2.png	J	0	0	0	280.766525890911	280.966557878768
74212.75	100	415	11	1	26	19	14	2	0	0	0	stim015_stimuli_original_vehicles_planes_3.png	C	0	0	0	281.166543299099	281.366532620043
74312.75	100	416	11	1	26	20	9	4	0	0	0	stim010_stimuli_original_vehicles_boats_2.png	E	0	0	0	281.566542421235	281.76654295763
74412.75	100	417	11	1	26	21	13	0	1	0	0	stim014_stimuli_original_vehicles_planes_2.png	A	0	0	0	281.966549589299	282.166557196062
74512.75	100	418	11	1	26	22	12	10	0	0	0	stim013_stimuli_original_vehicles_planes_1.png	Q	0	0	0	282.366593084997	282.566576554673
74612.75	100	419	11	1	26	23	13	9	1	0	0	stim014_stimuli_original_vehicles_planes_2.png	L	0	0	0	282.766578066163	282.966578846332
74712.75	100	420	11	1	26	24	4	8	0	0	0	stim005_stimuli_original_animals_fish_1.png	K	0	0	0	283.166581577156	283.366587233497
74812.75	100	421	11	1	26	25	10	3	0	0	0	stim011_stimuli_original_vehicles_boats_3.png	D	0	0	0	283.566609712783	283.766603910131
74912.75	100	422	11	1	26	26	0	1	0	0	0	stim001_stimuli_original_animals_birds_1.png	B	0	0	0	283.966603714973	284.166607420892
75012.75	100	423	11	1	26	27	15	13	0	0	0	stim016_stimuli_original_vehicles_planes_4.png	U	0	0	0	284.366613808786	284.566619465128
75112.75	100	424	11	1	26	28	6	9	0	1	0	stim007_stimuli_original_animals_fish_3.png	L	0	0	0	284.766646332806	284.966911402531
75212.75	100	425	11	1	26	29	5	5	0	0	0	stim006_stimuli_original_animals_fish_2.png	F	0	0	0	285.166641798103	285.36663721432
75312.75	100	426	11	1	26	30	7	9	0	1	1	stim008_stimuli_original_animals_fish_4.png	L	0	0	0	285.566652379464	285.766654378502
75412.75	100	427	11	1	26	31	2	6	0	0	0	stim003_stimuli_original_animals_birds_3.png	G	0	0	0	285.966670518741	286.166662765667
75512.75	100	428	11	1	26	32	3	12	0	0	0	stim004_stimuli_original_animals_birds_4.png	T	a	286.359253201867	1	286.366666715359	286.566676760325
75612.75	100	429	11	1	26	33	13	14	0	0	0	stim014_stimuli_original_vehicles_planes_2.png	V	0	0	0	286.766685098642	286.966682709288
75712.75	100	430	11	1	26	34	8	11	0	0	0	stim009_stimuli_original_vehicles_boats_1.png	R	0	0	0	287.166717866668	287.366691827774
75812.75	100	431	11	1	26	35	11	15	0	0	0	stim012_stimuli_original_vehicles_boats_4.png	Y	0	0	0	287.56669894699	287.766707041534
76554.5	100	432	12	0	8	0	15	6	0	0	0	stim016_stimuli_original_vehicles_planes_4.png	G	0	0	0	290.533457481069	290.73346898891
76654.5	100	433	12	0	8	1	5	7	0	0	0	stim006_stimuli_original_animals_fish_2.png	J	0	0	0	290.933470987948	291.133470061468
76754.5	100	434	12	0	8	2	9	12	0	0	0	stim010_stimuli_original_vehicles_boats_2.png	T	0	0	0	291.333471573191	291.533473084914
76854.5	100	435	12	0	8	3	12	1	0	0	0	stim013_stimuli_original_vehicles_planes_1.png	B	0	0	0	291.733483373653	291.933482934721
76954.5	100	436	12	0	8	4	1	15	0	0	0	stim002_stimuli_original_animals_birds_2.png	Y	0	0	0	292.133485421538	292.333928228356
77054.5	100	437	12	0	8	5	10	11	0	0	0	stim011_stimuli_original_vehicles_boats_3.png	R	0	0	0	292.533500635298	292.733523114584
77154.5	100	438	12	0	8	6	7	8	0	0	0	stim008_stimuli_original_animals_fish_4.png	K	0	0	0	292.933514386183	293.133518092101
77254.5	100	439	12	0	8	7	4	3	0	0	0	stim005_stimuli_original_animals_fish_1.png	D	0	0	0	293.33352472377	293.533528429456
77354.5	100	440	12	0	8	8	0	15	0	1	0	stim001_stimuli_original_animals_birds_1.png	Y	0	0	0	293.733535304898	293.933561441256
77454.5	100	441	12	0	8	9	11	9	0	0	0	stim012_stimuli_original_vehicles_boats_4.png	L	0	0	0	294.133544179611	294.333547397982
77554.5	100	442	12	0	8	10	4	15	1	1	0	stim005_stimuli_original_animals_fish_1.png	Y	0	0	0	294.5335498848	294.733558954438
77654.5	100	443	12	0	8	11	14	4	0	0	0	stim015_stimuli_original_vehicles_planes_3.png	E	0	0	0	294.933568511857	295.133563440526
77754.5	100	444	12	0	8	12	4	13	1	0	1	stim005_stimuli_original_animals_fish_1.png	U	a	295.525336676277	1	295.333572510397	295.533574997215
77854.5	100	445	12	0	8	13	6	2	0	0	0	stim007_stimuli_original_animals_fish_3.png	C	0	0	0	295.7335904059	295.933597525116
77954.5	100	446	12	0	8	14	2	5	0	0	0	stim003_stimuli_original_animals_birds_3.png	F	0	0	0	296.133596598636	296.333606887376
78054.5	100	447	12	0	8	15	13	0	0	0	0	stim014_stimuli_original_vehicles_planes_2.png	A	0	0	0	296.533603522927	296.733605034417
78154.5	100	448	12	0	8	16	8	10	0	0	0	stim009_stimuli_original_vehicles_boats_1.png	Q	0	0	0	296.933611666085	297.133614640683
78254.5	100	449	12	0	8	17	3	14	0	0	0	stim004_stimuli_original_animals_birds_4.png	V	0	0	0	297.333623466548	297.533630585764
78354.5	100	450	12	0	8	18	14	3	0	0	0	stim015_stimuli_original_vehicles_planes_3.png	D	0	0	0	297.733645750675	297.933642385993
78454.5	100	451	12	0	8	19	10	8	0	0	0	stim011_stimuli_original_vehicles_boats_3.png	K	0	0	0	298.133659989107	298.333654430229
78554.5	100	452	12	0	8	20	0	13	0	0	0	stim001_stimuli_original_animals_birds_1.png	U	0	0	0	298.533657648601	298.733660135418
78654.5	100	453	12	0	8	21	5	2	0	0	0	stim006_stimuli_original_animals_fish_2.png	C	0	0	0	298.933675787877	299.13367437385
78754.5	100	454	12	0	8	22	2	6	0	0	0	stim003_stimuli_original_animals_birds_3.png	G	0	0	0	299.333685881691	299.533685686532
78854.5	100	455	12	0	8	23	13	4	0	1	0	stim014_stimuli_original_vehicles_planes_2.png	E	0	0	0	299.733695487725	299.933696755674
78954.5	100	456	12	0	8	24	4	14	0	0	0	stim005_stimuli_original_animals_fish_1.png	V	0	0	0	300.133705093991	300.333706849255
79054.5	100	457	12	0	8	25	15	4	1	1	0	stim016_stimuli_original_vehicles_planes_4.png	E	0	0	0	300.533709580079	300.733714017319
79154.5	100	458	12	0	8	26	9	11	0	0	0	stim010_stimuli_original_vehicles_boats_2.png	R	0	0	0	300.933733083308	301.133724110899
79254.5	100	459	12	0	8	27	15	0	1	0	1	stim016_stimuli_original_vehicles_planes_4.png	A	0	0	0	301.333743664436	301.533747614129
79354.5	100	460	12	0	8	28	3	4	0	0	0	stim004_stimuli_original_animals_birds_4.png	E	a	301.925516705262	1	301.733748150524	301.93374698027
79454.5	100	461	12	0	8	29	8	7	0	0	0	stim009_stimuli_original_vehicles_boats_1.png	J	0	0	0	302.133752636611	302.333753417013
79554.5	100	462	12	0	8	30	11	10	0	0	0	stim012_stimuli_original_vehicles_boats_4.png	Q	0	0	0	302.533759317128	302.733765948797
79654.75	100	463	12	0	8	31	15	1	0	0	0	stim016_stimuli_original_vehicles_planes_4.png	B	0	0	0	302.934196077287	303.133794084424
79754.5	100	464	12	0	8	32	1	12	0	0	0	stim002_stimuli_original_animals_birds_2.png	T	0	0	0	303.333802178735	303.533816856099
79854.5	100	465	12	0	8	33	12	9	0	0	0	stim013_stimuli_original_vehicles_planes_1.png	L	0	0	0	303.733800325776	303.9337972051
79954.5	100	466	12	0	8	34	7	5	0	0	0	stim008_stimuli_original_animals_fish_4.png	F	0	0	0	304.133805787191	304.333807298681
80054.5	100	467	12	0	8	35	6	15	0	0	0	stim007_stimuli_original_animals_fish_3.png	Y	0	0	0	304.533818806522	304.733828851487
80804.5	100	468	13	1	2	0	3	4	0	0	0	stim004_stimuli_original_animals_birds_4.png	E	0	0	0	307.533903164556	307.733898093458
80904.5	100	469	13	1	2	1	10	0	0	0	0	stim011_stimuli_original_vehicles_boats_3.png	A	0	0	0	307.933906919323	308.133918914711
81004.5	100	470	13	1	2	2	15	2	0	0	0	stim016_stimuli_original_vehicles_planes_4.png	C	0	0	0	308.333922864404	308.5339304714
81104.5	100	471	13	1	2	3	12	8	0	0	0	stim013_stimuli_original_vehicles_planes_1.png	K	0	0	0	308.733941003913	308.933942271629
81204.5	100	472	13	1	2	4	13	3	0	0	0	stim014_stimuli_original_vehicles_planes_2.png	D	0	0	0	309.133949878626	309.333956997842
81304.5	100	473	13	1	2	5	5	9	1	1	0	stim006_stimuli_original_animals_fish_2.png	L	0	0	0	309.533981671324	309.733955388656
81404.5	100	474	13	1	2	6	6	7	0	0	0	stim007_stimuli_original_animals_fish_3.png	J	0	0	0	309.933994934428	310.133969139541
81504.75	100	475	13	1	2	7	5	9	1	1	1	stim006_stimuli_original_animals_fish_2.png	L	0	0	0	310.334292723332	310.533987035044
81604.5	100	476	13	1	2	8	14	15	0	0	0	stim015_stimuli_original_vehicles_planes_3.png	Y	0	0	0	310.734010001877	310.934023216367
81704.5	100	477	13	1	2	9	11	1	0	0	0	stim012_stimuli_original_vehicles_boats_4.png	B	0	0	0	311.134022046113	311.334006978665
81804.5	100	478	13	1	2	10	4	9	0	0	0	stim005_stimuli_original_animals_fish_1.png	L	0	0	0	311.534003857989	311.734019754222
81904.5	100	479	13	1	2	11	9	11	0	0	0	stim010_stimuli_original_vehicles_boats_2.png	R	0	0	0	311.934023947921	312.134028628934
82004.75	100	480	13	1	2	12	8	13	0	0	0	stim009_stimuli_original_vehicles_boats_1.png	U	0	0	0	312.334036723478	312.534038478974
82104.75	100	481	13	1	2	13	5	14	0	0	0	stim006_stimuli_original_animals_fish_2.png	V	0	0	0	312.734046085738	312.934051254531
82204.75	100	482	13	1	2	14	7	5	0	0	0	stim008_stimuli_original_animals_fish_4.png	F	0	0	0	313.134046914754	313.33404745115
82304.75	100	483	13	1	2	15	2	6	0	0	0	stim003_stimuli_original_animals_birds_3.png	G	0	0	0	313.53405554546	313.734057300957
82404.75	100	484	13	1	2	16	1	12	0	0	0	stim002_stimuli_original_animals_birds_2.png	T	0	0	0	313.934065639274	314.134070076514
82504.75	100	485	13	1	2	17	0	10	0	0	0	stim001_stimuli_original_animals_birds_1.png	Q	0	0	0	314.334080365254	314.53408212075
82604.75	100	486	13	1	2	18	10	0	0	0	0	stim011_stimuli_original_vehicles_boats_3.png	A	0	0	0	314.734087533318	314.93409148301
82704.75	100	487	13	1	2	19	12	1	0	0	0	stim013_stimuli_original_vehicles_planes_1.png	B	0	0	0	315.134105429053	315.334103039699
82804.75	100	488	13	1	2	20	6	2	0	0	0	stim007_stimuli_original_animals_fish_3.png	C	0	0	0	315.534280094085	315.73411313328
82904.75	100	489	13	1	2	21	5	7	0	0	0	stim006_stimuli_original_animals_fish_2.png	J	0	0	0	315.934123666026	316.134133710759
83004.75	100	490	13	1	2	22	14	5	0	0	0	stim015_stimuli_original_vehicles_planes_3.png	F	0	0	0	316.334130346309	316.53412941983
83104.75	100	491	13	1	2	23	13	8	0	0	0	stim014_stimuli_original_vehicles_planes_2.png	K	0	0	0	316.734142390545	316.934146827785
83204.75	100	492	13	1	2	24	11	9	0	0	0	stim012_stimuli_original_vehicles_boats_4.png	L	0	0	0	317.134151021251	317.334151557647
83304.75	100	493	13	1	2	25	9	4	0	0	0	stim010_stimuli_original_vehicles_boats_2.png	E	0	0	0	317.534160871292	317.734163845656
83404.75	100	494	13	1	2	26	1	11	0	0	0	stim002_stimuli_original_animals_birds_2.png	R	0	0	0	317.934180961223	318.134175158571
83504.75	100	495	13	1	2	27	15	14	0	0	0	stim016_stimuli_original_vehicles_planes_4.png	V	0	0	0	318.334186910186	318.534183545504
83604.75	100	496	13	1	2	28	9	5	1	1	0	stim010_stimuli_original_vehicles_boats_2.png	F	0	0	0	318.734192371368	318.934201928787
83704.75	100	497	13	1	2	29	7	6	0	0	0	stim008_stimuli_original_animals_fish_4.png	G	0	0	0	319.134208316449	319.334222018719
83804.75	100	498	13	1	2	30	9	5	1	1	1	stim010_stimuli_original_vehicles_boats_2.png	F	0	0	0	319.534212314989	319.734219190432
83904.75	100	499	13	1	2	31	3	13	0	0	0	stim004_stimuli_original_animals_birds_4.png	U	0	0	0	319.934223871678	320.134227089817
84004.75	100	500	13	1	2	32	8	12	0	0	0	stim009_stimuli_original_vehicles_boats_1.png	T	a	320.326786806108	1	320.334245912032	320.5342396216
84104.75	100	501	13	1	2	33	2	15	0	0	0	stim003_stimuli_original_animals_birds_3.png	Y	0	0	0	320.734246984823	320.934675162891
84204.75	100	502	13	1	2	34	0	10	0	0	0	stim001_stimuli_original_animals_birds_1.png	Q	0	0	0	321.134258541279	321.334269561572
84304.75	100	503	13	1	2	35	4	3	0	0	0	stim005_stimuli_original_animals_fish_1.png	D	0	0	0	321.534267415991	321.734269171488
84938	100	504	14	0	28	0	12	14	0	0	0	stim013_stimuli_original_vehicles_planes_1.png	V	0	0	0	324.06767686666	324.267675696407
85038	100	505	14	0	28	1	13	8	0	0	0	stim014_stimuli_original_vehicles_planes_2.png	K	0	0	0	324.467676720349	324.667681889143
85138	100	506	14	0	28	2	8	10	0	0	0	stim009_stimuli_original_vehicles_boats_1.png	Q	0	0	0	324.867695834953	325.067698077997
85238	100	507	14	0	28	3	4	2	0	0	0	stim005_stimuli_original_animals_fish_1.png	C	0	0	0	325.267698858166	325.46770402696
85338	100	508	14	0	28	4	9	15	0	0	0	stim010_stimuli_original_vehicles_boats_2.png	Y	0	0	0	325.667710414855	325.867716071196
85438	100	509	14	0	28	5	14	9	0	0	0	stim015_stimuli_original_vehicles_planes_3.png	L	0	0	0	326.067727335263	326.267722507706
85538	100	510	14	0	28	6	15	11	0	0	0	stim016_stimuli_original_vehicles_planes_4.png	R	0	0	0	326.467732065124	326.667745035607
85638	100	511	14	0	28	7	11	1	0	0	0	stim012_stimuli_original_vehicles_boats_4.png	B	0	0	0	326.867742158705	327.067744889529
85738	100	512	14	0	28	8	7	7	0	0	0	stim008_stimuli_original_animals_fish_4.png	J	0	0	0	327.267751764739	327.467760103056
85838.25	100	513	14	0	28	9	3	0	0	0	0	stim004_stimuli_original_animals_birds_4.png	A	0	0	0	327.668192669749	327.867782387417
85938	100	514	14	0	28	10	11	12	1	0	0	stim012_stimuli_original_vehicles_boats_4.png	T	0	0	0	328.067782436032	328.267775658285
86038	100	515	14	0	28	11	5	13	0	1	0	stim006_stimuli_original_animals_fish_2.png	U	0	0	0	328.46778448415	328.667792822467
86138	100	516	14	0	28	12	11	5	1	0	1	stim012_stimuli_original_vehicles_boats_4.png	F	0	0	0	328.867803842528	329.067803891376
86238	100	517	14	0	28	13	6	13	0	1	0	stim007_stimuli_original_animals_fish_3.png	U	0	0	0	329.267810523044	329.467814960284
86338	100	518	14	0	28	14	0	3	0	0	0	stim001_stimuli_original_animals_birds_1.png	D	0	0	0	329.667821591953	329.867824810091
86438	100	519	14	0	28	15	10	6	0	0	0	stim011_stimuli_original_vehicles_boats_3.png	G	0	0	0	330.067832417088	330.267837585881
86538	100	520	14	0	28	16	2	4	0	0	0	stim003_stimuli_original_animals_birds_3.png	E	0	0	0	330.467840316473	330.667839389993
86638	100	521	14	0	28	17	1	13	0	0	0	stim002_stimuli_original_animals_birds_2.png	U	0	0	0	330.867856993107	331.067863868317
86738	100	522	14	0	28	18	13	1	0	0	0	stim014_stimuli_original_vehicles_planes_2.png	B	0	0	0	331.267857334344	331.467860796489
86838	100	523	14	0	28	19	4	2	0	0	0	stim005_stimuli_original_animals_fish_1.png	C	0	0	0	331.667875717627	331.867880154867
86938	100	524	14	0	28	20	6	10	0	0	0	stim007_stimuli_original_animals_fish_3.png	Q	0	0	0	332.067886298988	332.267883909633
87038	100	525	14	0	28	21	3	0	0	0	0	stim004_stimuli_original_animals_birds_4.png	A	0	0	0	332.467894442147	332.667896928964
87138	100	526	14	0	28	22	13	6	1	0	0	stim014_stimuli_original_vehicles_planes_2.png	G	0	0	0	332.867902341532	333.068144980818
87238	100	527	14	0	28	23	5	11	0	1	0	stim006_stimuli_original_animals_fish_2.png	R	0	0	0	333.267912679119	333.467915653484
87338	100	528	14	0	28	24	13	5	1	0	1	stim014_stimuli_original_vehicles_planes_2.png	F	0	0	0	333.66792033473	333.867924040649
87438	100	529	14	0	28	25	12	11	0	1	0	stim013_stimuli_original_vehicles_planes_1.png	R	0	0	0	334.067938474007	334.267935597105
87538	100	530	14	0	28	26	0	3	0	0	0	stim001_stimuli_original_animals_birds_1.png	D	0	0	0	334.467944666976	334.667946178466
87638	100	531	14	0	28	27	7	7	0	0	0	stim008_stimuli_original_animals_fish_4.png	J	0	0	0	334.867957442533	335.067959685577
87738	100	532	14	0	28	28	1	11	0	0	0	stim002_stimuli_original_animals_birds_2.png	R	0	0	0	335.267985334387	335.467971729813
87838	100	533	14	0	28	29	11	15	0	0	0	stim012_stimuli_original_vehicles_boats_4.png	Y	0	0	0	335.667975435732	335.867986212019
87938	100	534	14	0	28	30	9	14	0	0	0	stim010_stimuli_original_vehicles_boats_2.png	V	0	0	0	336.067991380813	336.267994111404
88038	100	535	14	0	28	31	15	9	0	0	0	stim016_stimuli_original_vehicles_planes_4.png	L	0	0	0	336.468000011519	336.668004936539
88138	100	536	14	0	28	32	2	4	0	0	0	stim003_stimuli_original_animals_birds_3.png	E	0	0	0	336.86801059288	337.068017224548
88238	100	537	14	0	28	33	10	8	0	0	0	stim011_stimuli_original_vehicles_boats_3.png	K	0	0	0	337.268022149568	337.468022929737
88338	100	538	14	0	28	34	8	13	0	0	0	stim009_stimuli_original_vehicles_boats_1.png	U	0	0	0	337.66802980518	337.868030341575
88438	100	539	14	0	28	35	14	12	0	0	0	stim015_stimuli_original_vehicles_planes_3.png	T	0	0	0	338.068045018939	338.26804409246
89221.5	100	540	15	1	17	0	6	7	0	0	0	stim007_stimuli_original_animals_fish_3.png	J	0	0	0	341.201468025334	341.40145734651
89321.5	100	541	15	1	17	1	13	8	0	0	0	stim014_stimuli_original_vehicles_planes_2.png	K	0	0	0	341.601464465726	341.801483531483
89421.5	100	542	15	1	17	2	3	5	0	0	0	stim004_stimuli_original_animals_birds_4.png	F	0	0	0	342.001487968955	342.201485823374
89521.5	100	543	15	1	17	3	2	15	0	0	0	stim003_stimuli_original_animals_birds_3.png	Y	0	0	0	342.40149830631	342.601506888401
89621.5	100	544	15	1	17	4	15	4	0	0	0	stim016_stimuli_original_vehicles_planes_4.png	E	0	0	0	342.801512057194	343.001520639285
89721.5	100	545	15	1	17	5	11	10	0	0	0	stim012_stimuli_original_vehicles_boats_4.png	Q	0	0	0	343.201515324414	343.401521712076
89821.5	100	546	15	1	17	6	1	14	0	0	0	stim002_stimuli_original_animals_birds_2.png	V	0	0	0	343.601535170339	343.801539364038
89921.5	100	547	15	1	17	7	3	6	1	0	0	stim004_stimuli_original_animals_birds_4.png	G	0	0	0	344.001547458349	344.201588467229
90021.5	100	548	15	1	17	8	10	9	0	0	0	stim011_stimuli_original_vehicles_boats_3.png	L	0	0	0	344.401541704545	344.601546873339
90121.5	100	549	15	1	17	9	3	11	1	0	0	stim004_stimuli_original_animals_birds_4.png	R	0	0	0	344.801551554352	345.001561355544
90221.5	100	550	15	1	17	10	12	4	0	1	0	stim013_stimuli_original_vehicles_planes_1.png	E	0	0	0	345.201576520456	345.401571449358
90321.5	100	551	15	1	17	11	4	0	0	0	0	stim005_stimuli_original_animals_fish_1.png	A	0	0	0	345.601589296013	345.801589588635
90421.5	100	552	15	1	17	12	7	4	0	1	1	stim008_stimuli_original_animals_fish_4.png	E	0	0	0	346.001590612577	346.201581884408
90521.5	100	553	15	1	17	13	8	3	0	0	0	stim009_stimuli_original_vehicles_boats_1.png	D	0	0	0	346.401589247398	346.601597829489
90621.5	100	554	15	1	17	14	9	12	0	0	0	stim010_stimuli_original_vehicles_boats_2.png	T	0	0	0	346.801611287752	347.001609629719
90721.5	100	555	15	1	17	15	5	2	0	0	0	stim006_stimuli_original_animals_fish_2.png	C	0	0	0	347.201629427029	347.401632889174
90821.5	100	556	15	1	17	16	0	1	0	0	0	stim001_stimuli_original_animals_birds_1.png	B	0	0	0	347.601627086522	347.80162713537
90921.5	100	557	15	1	17	17	14	13	0	0	0	stim015_stimuli_original_vehicles_planes_3.png	U	0	0	0	348.001652540173	348.201645762427
91021.5	100	558	15	1	17	18	13	14	0	0	0	stim014_stimuli_original_vehicles_planes_2.png	V	0	0	0	348.401658489136	348.601655612234
91121.5	100	559	15	1	17	19	1	0	0	0	0	stim002_stimuli_original_animals_birds_2.png	A	0	0	0	348.801696864888	349.001693500206
91221.5	100	560	15	1	17	20	2	5	0	0	0	stim003_stimuli_original_animals_birds_3.png	F	0	0	0	349.201698669	349.401673605433
91321.5	100	561	15	1	17	21	12	9	0	0	0	stim013_stimuli_original_vehicles_planes_1.png	L	0	0	0	349.601676823571	349.801697352435
91421.5	100	562	15	1	17	22	3	8	0	0	0	stim004_stimuli_original_animals_birds_4.png	K	0	0	0	350.001694475533	350.201687941328
91521.5	100	563	15	1	17	23	4	7	1	0	0	stim005_stimuli_original_animals_fish_1.png	J	0	0	0	350.401697011199	350.601698035141
91621.5	100	564	15	1	17	24	0	4	0	0	0	stim001_stimuli_original_animals_birds_1.png	E	0	0	0	350.801718076225	351.001715930644
91721.5	100	565	15	1	17	25	4	12	1	0	0	stim005_stimuli_original_animals_fish_1.png	T	0	0	0	351.201771080494	351.401720660739
91821.5	100	566	15	1	17	26	11	3	0	1	0	stim012_stimuli_original_vehicles_boats_4.png	D	0	0	0	351.601733143674	351.801738800015
91921.5	100	567	15	1	17	27	9	10	0	0	0	stim010_stimuli_original_vehicles_boats_2.png	Q	0	0	0	352.001742018387	352.20176132815
92021.5	100	568	15	1	17	28	6	3	0	1	1	stim007_stimuli_original_animals_fish_3.png	D	a	352.394348838599	1	352.401762595866	352.601763619808
92121.5	100	569	15	1	17	29	14	1	0	0	0	stim015_stimuli_original_vehicles_planes_3.png	B	0	0	0	352.801761230454	353.0017659117
92221.5	100	570	15	1	17	30	10	11	0	0	0	stim011_stimuli_original_vehicles_boats_3.png	R	0	0	0	353.201780101284	353.40177771193
92321.5	100	571	15	1	17	31	4	15	0	0	0	stim005_stimuli_original_animals_fish_1.png	Y	0	0	0	353.601805798942	353.801792925689
92421.5	100	572	15	1	17	32	15	2	0	0	0	stim016_stimuli_original_vehicles_planes_4.png	C	0	0	0	354.001813698327	354.201808383223
92521.5	100	573	15	1	17	33	5	3	0	0	0	stim006_stimuli_original_animals_fish_2.png	D	0	0	0	354.40181379579	354.601809212239
92621.5	100	574	15	1	17	34	8	13	0	0	0	stim009_stimuli_original_vehicles_boats_1.png	U	0	0	0	354.801819744753	355.001865142025
92721.5	100	575	15	1	17	35	7	6	0	0	0	stim008_stimuli_original_animals_fish_4.png	G	0	0	0	355.201836908935	355.401835494908
94388.25	100	576	16	0	25	0	4	7	0	0	0	stim005_stimuli_original_animals_fish_1.png	J	0	0	0	361.868687164038	362.068684287136
94488.25	100	577	16	0	25	1	2	11	0	0	0	stim003_stimuli_original_animals_birds_3.png	R	0	0	0	362.268702134024	362.468703889521
94588.25	100	578	16	0	25	2	15	13	0	0	0	stim016_stimuli_original_vehicles_planes_4.png	U	0	0	0	362.668711252511	362.868709838483
94688.25	100	579	16	0	25	3	3	6	0	0	0	stim004_stimuli_original_animals_birds_4.png	G	0	0	0	363.0687052547	363.26872797776
94788.25	100	580	16	0	25	4	12	15	0	0	0	stim013_stimuli_original_vehicles_planes_1.png	Y	0	0	0	363.468725832412	363.668729294324
94888.25	100	581	16	0	25	5	11	12	0	0	0	stim012_stimuli_original_vehicles_boats_4.png	T	0	0	0	363.868739583064	364.068743288983
94988.25	100	582	16	0	25	6	7	4	0	0	0	stim008_stimuli_original_animals_fish_4.png	E	0	0	0	364.26875455305	364.468761672266
95088.25	100	583	16	0	25	7	12	2	1	0	0	stim013_stimuli_original_vehicles_planes_1.png	C	0	0	0	364.66876147734	364.868761769729
95188.25	100	584	16	0	25	8	9	1	0	1	0	stim010_stimuli_original_vehicles_boats_2.png	B	0	0	0	365.068771570921	365.268776739715
95288.25	100	585	16	0	25	9	12	0	1	0	1	stim013_stimuli_original_vehicles_planes_1.png	A	0	0	0	365.468793367501	365.668780006701
95388.25	100	586	16	0	25	10	6	1	0	1	0	stim007_stimuli_original_animals_fish_3.png	B	0	0	0	365.86878956412	366.068812530953
95488.25	100	587	16	0	25	11	10	8	0	0	0	stim011_stimuli_original_vehicles_boats_3.png	K	0	0	0	366.268799413927	366.468809946673
95588.25	100	588	16	0	25	12	1	5	0	0	0	stim002_stimuli_original_animals_birds_2.png	F	0	0	0	366.668811214389	366.868812238332
95688.25	100	589	16	0	25	13	8	14	0	0	0	stim009_stimuli_original_vehicles_boats_1.png	V	0	0	0	367.068820332875	367.268820625497
95788.5	100	590	16	0	25	14	13	10	0	0	0	stim014_stimuli_original_vehicles_planes_2.png	Q	0	0	0	367.469302685466	367.668845591601
95888.25	100	591	16	0	25	15	5	3	0	0	0	stim006_stimuli_original_animals_fish_2.png	D	0	0	0	367.868841495598	368.06884837104
95988.25	100	592	16	0	25	16	14	1	0	0	0	stim015_stimuli_original_vehicles_planes_3.png	B	0	0	0	368.268858171999	368.468857489293
96088.25	100	593	16	0	25	17	0	9	0	0	0	stim001_stimuli_original_animals_birds_1.png	L	0	0	0	368.66886802204	368.868864413584
96188.25	100	594	16	0	25	18	9	0	0	0	0	stim010_stimuli_original_vehicles_boats_2.png	A	0	0	0	369.068872508127	369.268877676921
96288.25	100	595	16	0	25	19	1	14	0	0	0	stim002_stimuli_original_animals_birds_2.png	V	0	0	0	369.468888453208	369.668887282955
96388.25	100	596	16	0	25	20	3	5	0	0	0	stim004_stimuli_original_animals_birds_4.png	F	0	0	0	369.868919758359	370.068900790066
96488.25	100	597	16	0	25	21	10	13	0	0	0	stim011_stimuli_original_vehicles_boats_3.png	U	0	0	0	370.268908884376	370.468915028498
96588.25	100	598	16	0	25	22	14	8	0	0	0	stim015_stimuli_original_vehicles_planes_3.png	K	0	0	0	370.668917759089	370.868925365852
96688.25	100	599	16	0	25	23	5	1	0	0	0	stim006_stimuli_original_animals_fish_2.png	B	0	0	0	371.068926390028	371.268932046369
96788.25	100	600	16	0	25	24	8	10	0	0	0	stim009_stimuli_original_vehicles_boats_1.png	Q	0	0	0	371.468935020734	371.668935800903
96888.25	100	601	16	0	25	25	1	6	1	0	0	stim002_stimuli_original_animals_birds_2.png	G	0	0	0	371.868942676345	372.068938824115
96988.25	100	602	16	0	25	26	0	12	0	1	0	stim001_stimuli_original_animals_birds_1.png	T	0	0	0	372.268948381534	372.468955744524
97088.25	100	603	16	0	25	27	1	9	1	0	1	stim002_stimuli_original_animals_birds_2.png	L	0	0	0	372.668964814395	372.869426881894
97188.25	100	604	16	0	25	28	2	12	0	1	0	stim003_stimuli_original_animals_birds_3.png	T	0	0	0	373.068979540374	373.268983246293
97288.25	100	605	16	0	25	29	4	7	0	0	0	stim005_stimuli_original_animals_fish_1.png	J	0	0	0	373.468990609283	373.668996753404
97388.25	100	606	16	0	25	30	12	11	0	0	0	stim013_stimuli_original_vehicles_planes_1.png	R	0	0	0	373.869007529691	374.069008066086
97488.25	100	607	16	0	25	31	15	12	0	0	0	stim016_stimuli_original_vehicles_planes_4.png	T	0	0	0	374.269009090029	374.469041321659
97588.25	100	608	16	0	25	32	6	3	0	0	0	stim007_stimuli_original_animals_fish_3.png	D	0	0	0	374.669044783805	374.869063362014
97688.25	100	609	16	0	25	33	13	15	0	0	0	stim014_stimuli_original_vehicles_planes_2.png	Y	0	0	0	375.069035128923	375.269040541491
97788.25	100	610	16	0	25	34	11	2	0	0	0	stim012_stimuli_original_vehicles_boats_4.png	C	0	0	0	375.46904790448	375.669050147524
97888.25	100	611	16	0	25	35	7	4	0	0	0	stim008_stimuli_original_animals_fish_4.png	E	0	0	0	375.869061411591	376.06905975379
101580	100	612	17	1	18	0	12	13	0	0	0	stim013_stimuli_original_vehicles_planes_1.png	U	0	0	0	390.636109786341	390.836110078963
101680	100	613	17	1	18	1	9	8	0	0	0	stim010_stimuli_original_vehicles_boats_2.png	K	0	0	0	391.036125000101	391.236118709669
101780	100	614	17	1	18	2	5	9	0	0	0	stim006_stimuli_original_animals_fish_2.png	L	0	0	0	391.436122659361	391.636124902405
101880	100	615	17	1	18	3	7	4	0	0	0	stim008_stimuli_original_animals_fish_4.png	E	0	0	0	391.836133240722	392.03651631414
101980	100	616	17	1	18	4	14	10	0	0	0	stim015_stimuli_original_vehicles_planes_3.png	Q	0	0	0	392.23615016113	392.436152891954
102080	100	617	17	1	18	5	2	6	0	1	0	stim003_stimuli_original_animals_birds_3.png	G	0	0	0	392.636155622546	392.836157134036
102180	100	618	17	1	18	6	8	3	1	0	0	stim009_stimuli_original_vehicles_boats_1.png	D	0	0	0	393.036194485845	393.236185025889
102280	100	619	17	1	18	7	4	6	0	1	1	stim005_stimuli_original_animals_fish_1.png	G	0	0	0	393.436189707136	393.636183416704
102380	100	620	17	1	18	8	8	0	1	0	0	stim009_stimuli_original_vehicles_boats_1.png	A	0	0	0	393.836220036959	394.036219598027
102480	100	621	17	1	18	9	15	14	0	0	0	stim016_stimuli_original_vehicles_planes_4.png	V	0	0	0	394.236213064054	394.436221158365
102580	100	622	17	1	18	10	11	5	0	0	0	stim012_stimuli_original_vehicles_boats_4.png	F	0	0	0	394.636221450986	394.836211991264
102680	100	623	17	1	18	11	0	11	0	0	0	stim001_stimuli_original_animals_birds_1.png	R	0	0	0	395.036217160057	395.236225010594
102780	100	624	17	1	18	12	6	1	0	0	0	stim007_stimuli_original_animals_fish_3.png	B	0	0	0	395.436233105138	395.636232666206
102880	100	625	17	1	18	13	3	6	0	0	0	stim004_stimuli_original_animals_birds_4.png	G	0	0	0	395.836242223624	396.036252512364
102980	100	626	17	1	18	14	10	7	0	0	0	stim011_stimuli_original_vehicles_boats_3.png	J	0	0	0	396.236251829658	396.436259680428
103080	100	627	17	1	18	15	1	12	0	0	0	stim002_stimuli_original_animals_birds_2.png	T	0	0	0	396.636263142573	396.836271480657
103180	100	628	17	1	18	16	8	15	0	0	0	stim009_stimuli_original_vehicles_boats_1.png	Y	0	0	0	397.036277624778	397.236274747876
103280.25	100	629	17	1	18	17	13	2	0	0	0	stim014_stimuli_original_vehicles_planes_2.png	C	0	0	0	397.436290156562	397.636284110136
103380.25	100	630	17	1	18	18	2	13	0	0	0	stim003_stimuli_original_animals_birds_3.png	U	0	0	0	397.836292692227	398.036305662943
103480.25	100	631	17	1	18	19	15	8	0	0	0	stim016_stimuli_original_vehicles_planes_4.png	K	0	0	0	398.236330336425	398.436305516632
103580.25	100	632	17	1	18	20	12	1	0	0	0	stim013_stimuli_original_vehicles_planes_1.png	B	0	0	0	398.636318487115	398.836318048416
103680.25	100	633	17	1	18	21	7	10	0	0	0	stim008_stimuli_original_animals_fish_4.png	Q	0	0	0	399.036331994226	399.236332774395
103780.25	100	634	17	1	18	22	6	3	0	0	0	stim007_stimuli_original_animals_fish_3.png	D	0	0	0	399.43635110883	399.636369443266
103880.25	100	635	17	1	18	23	1	6	0	0	0	stim002_stimuli_original_animals_birds_2.png	G	0	0	0	399.836375343613	400.036384169478
103980.25	100	636	17	1	18	24	11	0	0	0	0	stim012_stimuli_original_vehicles_boats_4.png	A	0	0	0	400.236375197303	400.436365493573
104080.25	100	637	17	1	18	25	5	11	0	0	0	stim006_stimuli_original_animals_fish_2.png	R	0	0	0	400.636371637695	400.836380463559
104180.25	100	638	17	1	18	26	14	15	0	0	0	stim015_stimuli_original_vehicles_planes_3.png	Y	0	0	0	401.036382706603	401.236438100226
104280.25	100	639	17	1	18	27	0	8	0	1	0	stim001_stimuli_original_animals_birds_1.png	K	0	0	0	401.436387436464	401.636390411062
104380.25	100	640	17	1	18	28	6	4	1	0	0	stim007_stimuli_original_animals_fish_3.png	E	0	0	0	401.836406307295	402.036406356143
104480.25	100	641	17	1	18	29	3	8	0	1	1	stim004_stimuli_original_animals_birds_4.png	K	0	0	0	402.236415182007	402.436421813676
104580.25	100	642	17	1	18	30	6	2	1	0	0	stim007_stimuli_original_animals_fish_3.png	C	0	0	0	402.636851698393	402.83643141971
104680.25	100	643	17	1	18	31	10	14	0	0	0	stim011_stimuli_original_vehicles_boats_3.png	V	a	403.228207824985	1	403.036440489348	403.236433955375
104780.25	100	644	17	1	18	32	4	7	0	0	0	stim005_stimuli_original_animals_fish_1.png	J	0	0	0	403.436452777358	403.636457458604
104880.25	100	645	17	1	18	33	9	5	0	0	0	stim010_stimuli_original_vehicles_boats_2.png	F	0	0	0	403.836464821594	404.036467552185
104980.25	100	646	17	1	18	34	8	9	0	0	0	stim009_stimuli_original_vehicles_boats_1.png	L	0	0	0	404.236478328705	404.436472769827
105080.25	100	647	17	1	18	35	13	12	0	0	0	stim014_stimuli_original_vehicles_planes_2.png	T	0	0	0	404.636485008989	404.836490421556
107292.75	100	648	18	0	24	0	6	13	0	0	0	stim007_stimuli_original_animals_fish_3.png	U	0	0	0	413.486716774292	413.686716091586
107392.75	100	649	18	0	24	1	7	2	0	0	0	stim008_stimuli_original_animals_fish_4.png	C	0	0	0	413.88672126038	414.086720821448
107492.75	100	650	18	0	24	2	8	10	0	0	0	stim009_stimuli_original_vehicles_boats_1.png	Q	0	0	0	414.286735742586	414.486733109457
107592.75	100	651	18	0	24	3	12	1	0	0	0	stim013_stimuli_original_vehicles_planes_1.png	B	0	0	0	414.686747055501	414.886745153693
107692.75	100	652	18	0	24	4	11	12	0	0	0	stim012_stimuli_original_vehicles_boats_4.png	T	0	0	0	415.086751541588	415.286755003734
107792.75	100	653	18	0	24	5	15	11	0	0	0	stim016_stimuli_original_vehicles_planes_4.png	R	0	0	0	415.486769437091	415.686768510612
107892.75	100	654	18	0	24	6	14	3	0	0	0	stim015_stimuli_original_vehicles_planes_3.png	D	0	0	0	415.887191812508	416.086785674794
107992.75	100	655	18	0	24	7	3	5	0	0	0	stim004_stimuli_original_animals_birds_4.png	F	0	0	0	416.286785723642	416.486790892435
108092.75	100	656	18	0	24	8	5	9	0	0	0	stim006_stimuli_original_animals_fish_2.png	L	0	0	0	416.686797767878	416.886797816493
108192.75	100	657	18	0	24	9	2	4	0	0	0	stim003_stimuli_original_animals_birds_3.png	E	0	0	0	417.086805667263	417.286809129408
108292.75	100	658	18	0	24	10	14	15	1	1	0	stim015_stimuli_original_vehicles_planes_3.png	Y	0	0	0	417.486819661921	417.686817760114
108392.75	100	659	18	0	24	11	0	8	0	0	0	stim001_stimuli_original_animals_birds_1.png	K	0	0	0	417.88682536711	418.0868327301
108492.75	100	660	18	0	24	12	14	15	1	1	1	stim015_stimuli_original_vehicles_planes_3.png	Y	0	0	0	418.286833754042	418.486864522798
108592.75	100	661	18	0	24	13	9	14	0	0	0	stim010_stimuli_original_vehicles_boats_2.png	V	0	0	0	418.686858232599	418.886854380369
108692.75	100	662	18	0	24	14	1	6	0	0	0	stim002_stimuli_original_animals_birds_2.png	G	0	0	0	419.086862474913	419.286866668379
108792.75	100	663	18	0	24	15	13	15	0	0	0	stim014_stimuli_original_vehicles_planes_2.png	Y	0	0	0	419.486876225565	419.686879443936
108892.75	100	664	18	0	24	16	10	7	0	0	0	stim011_stimuli_original_vehicles_boats_3.png	J	0	0	0	419.886886563152	420.086896364344
108992.75	100	665	18	0	24	17	4	0	0	0	0	stim005_stimuli_original_animals_fish_1.png	A	0	0	0	420.286894462537	420.486895486712
109092.75	100	666	18	0	24	18	0	4	0	0	0	stim001_stimuli_original_animals_birds_1.png	E	0	0	0	420.686904800124	420.886906067841
109192.75	100	667	18	0	24	19	7	10	0	0	0	stim008_stimuli_original_animals_fish_4.png	Q	0	0	0	421.086909529986	421.287141197827
109292.75	100	668	18	0	24	20	15	13	0	0	0	stim016_stimuli_original_vehicles_planes_4.png	U	0	0	0	421.486921330448	421.68693113164
109392.75	100	669	18	0	24	21	6	1	0	0	0	stim007_stimuli_original_animals_fish_3.png	B	0	0	0	421.886933862232	422.086944150971
109492.75	100	670	18	0	24	22	14	9	0	0	0	stim015_stimuli_original_vehicles_planes_3.png	L	0	0	0	422.286947369343	422.486981795169
109592.75	100	671	18	0	24	23	15	14	1	1	0	stim016_stimuli_original_vehicles_planes_4.png	V	0	0	0	422.686968678143	422.886960437521
109692.75	100	672	18	0	24	24	8	0	0	0	0	stim009_stimuli_original_vehicles_boats_1.png	A	0	0	0	423.086974139558	423.286999056814
109792.75	100	673	18	0	24	25	15	14	1	1	1	stim016_stimuli_original_vehicles_planes_4.png	V	0	0	0	423.487007638905	423.687001348706
109892.75	100	674	18	0	24	26	4	2	0	0	0	stim005_stimuli_original_animals_fish_1.png	C	0	0	0	423.886999203125	424.087016562466
109992.75	100	675	18	0	24	27	9	5	0	0	0	stim010_stimuli_original_vehicles_boats_2.png	F	a	424.279642350972	1	424.286999788368	424.486998374108
110092.75	100	676	18	0	24	28	5	3	0	0	0	stim006_stimuli_original_animals_fish_2.png	D	0	0	0	424.687007200206	424.887007492594
110192.75	100	677	18	0	24	29	3	14	0	0	0	stim004_stimuli_original_animals_birds_4.png	V	0	0	0	425.087023145286	425.287022218807
110292.75	100	678	18	0	24	30	11	15	0	0	0	stim012_stimuli_original_vehicles_boats_4.png	Y	0	0	0	425.487034457969	425.687030849513
110392.75	100	679	18	0	24	31	12	11	0	0	0	stim013_stimuli_original_vehicles_planes_1.png	R	0	0	0	425.88703674986	426.087046307046
110492.75	100	680	18	0	24	32	1	12	0	0	0	stim002_stimuli_original_animals_birds_2.png	T	0	0	0	426.287050988292	426.487056888407
110592.75	100	681	18	0	24	33	10	8	0	0	0	stim011_stimuli_original_vehicles_boats_3.png	K	0	0	0	426.687065714272	426.887073077494
110692.75	100	682	18	0	24	34	2	7	0	0	0	stim003_stimuli_original_animals_birds_3.png	J	0	0	0	427.087069956586	427.287077075802
110792.75	100	683	18	0	24	35	13	6	0	0	0	stim014_stimuli_original_vehicles_planes_2.png	G	0	0	0	427.487080294173	427.68708497542
111463.75	100	684	19	1	37	0	11	6	0	0	0	stim012_stimuli_original_vehicles_boats_4.png	G	0	0	0	430.170523000415	430.370528412983
111563.75	100	685	19	1	37	1	12	4	0	0	0	stim013_stimuli_original_vehicles_planes_1.png	E	0	0	0	430.570525292307	430.770500716288
111663.75	100	686	19	1	37	2	4	7	0	0	0	stim005_stimuli_original_animals_fish_1.png	J	0	0	0	430.970516124973	431.170509834774
111763.75	100	687	19	1	37	3	8	15	0	0	0	stim009_stimuli_original_vehicles_boats_1.png	Y	0	0	0	431.370530363405	431.570521147456
111863.75	100	688	19	1	37	4	13	13	0	0	0	stim014_stimuli_original_vehicles_planes_2.png	U	0	0	0	431.770526803797	431.970530997263
111963.75	100	689	19	1	37	5	1	12	0	0	0	stim002_stimuli_original_animals_birds_2.png	T	0	0	0	432.170536409831	432.370555719594
112063.75	100	690	19	1	37	6	15	5	1	0	0	stim016_stimuli_original_vehicles_planes_4.png	F	0	0	0	432.570550892269	432.770551916212
112163.75	100	691	19	1	37	7	10	10	0	0	0	stim011_stimuli_original_vehicles_boats_3.png	Q	0	0	0	432.970559035428	433.170563228894
112263.75	100	692	19	1	37	8	15	9	1	0	0	stim016_stimuli_original_vehicles_planes_4.png	L	0	0	0	433.37057034811	433.570577467326
112363.75	100	693	19	1	37	9	7	13	0	1	0	stim008_stimuli_original_animals_fish_4.png	U	0	0	0	433.770585074322	433.970582441194
112463.75	100	694	19	1	37	10	2	1	0	0	0	stim003_stimuli_original_animals_birds_3.png	B	0	0	0	434.170620524092	434.370625692885
112563.75	100	695	19	1	37	11	9	13	0	1	1	stim010_stimuli_original_vehicles_boats_2.png	U	0	0	0	434.570601360872	434.770605798112
112663.75	100	696	19	1	37	12	0	14	0	0	0	stim001_stimuli_original_animals_birds_1.png	V	a	435.162382690934	1	434.970615355531	435.170650268905
112763.75	100	697	19	1	37	13	3	3	0	0	0	stim004_stimuli_original_animals_birds_4.png	D	0	0	0	435.370620816713	435.570626717061
112863.75	100	698	19	1	37	14	6	0	0	0	0	stim007_stimuli_original_animals_fish_3.png	A	0	0	0	435.770638468675	435.970639980165
112963.75	100	699	19	1	37	15	15	8	0	0	0	stim016_stimuli_original_vehicles_planes_4.png	K	0	0	0	436.170680745039	436.37065958255
113063.75	100	700	19	1	37	16	5	2	0	0	0	stim006_stimuli_original_animals_fish_2.png	C	0	0	0	436.570666457992	436.770669432357
113163.75	100	701	19	1	37	17	14	11	0	0	0	stim015_stimuli_original_vehicles_planes_3.png	R	0	0	0	436.970683865948	437.170682695694
113263.75	100	702	19	1	37	18	11	14	0	0	0	stim012_stimuli_original_vehicles_boats_4.png	V	0	0	0	437.37069810438	437.570704492042
113363.75	100	703	19	1	37	19	2	5	0	0	0	stim003_stimuli_original_animals_birds_3.png	F	0	0	0	437.770699664718	437.970699469792
113463.75	100	704	19	1	37	20	8	15	0	0	0	stim009_stimuli_original_vehicles_boats_1.png	Y	0	0	0	438.170714634703	438.370711270021
113563.75	100	705	19	1	37	21	0	6	0	0	0	stim001_stimuli_original_animals_birds_1.png	G	0	0	0	438.570717414143	438.770723558031
113663.75	100	706	19	1	37	22	3	3	0	0	0	stim004_stimuli_original_animals_birds_4.png	D	0	0	0	438.971166364849	439.170745842159
113763.75	100	707	19	1	37	23	14	0	0	0	0	stim015_stimuli_original_vehicles_planes_3.png	A	0	0	0	439.370742233936	439.570745208301
113863.75	100	708	19	1	37	24	13	9	1	0	0	stim014_stimuli_original_vehicles_planes_2.png	L	0	0	0	439.770750864642	439.970752376365
113963.75	100	709	19	1	37	25	1	2	0	0	0	stim002_stimuli_original_animals_birds_2.png	C	0	0	0	440.170759739354	440.370763689047
114063.75	100	710	19	1	37	26	13	7	1	0	0	stim014_stimuli_original_vehicles_planes_2.png	J	0	0	0	440.570761787472	440.770762811415
114163.75	100	711	19	1	37	27	9	15	0	1	0	stim010_stimuli_original_vehicles_boats_2.png	Y	0	0	0	440.970777488779	441.170812645927
114263.75	100	712	19	1	37	28	10	10	0	0	0	stim011_stimuli_original_vehicles_boats_3.png	Q	0	0	0	441.370818302501	441.570825665491
114363.75	100	713	19	1	37	29	5	15	0	1	1	stim006_stimuli_original_animals_fish_2.png	Y	0	0	0	441.770807428518	441.970805526711
114463.75	100	714	19	1	37	30	12	1	0	0	0	stim013_stimuli_original_vehicles_planes_1.png	B	0	0	0	442.170819228981	442.370816839626
114563.75	100	715	19	1	37	31	13	13	0	0	0	stim014_stimuli_original_vehicles_planes_2.png	U	0	0	0	442.570821033092	442.770829615183
114663.75	100	716	19	1	37	32	15	8	0	0	0	stim016_stimuli_original_vehicles_planes_4.png	K	0	0	0	442.970840635244	443.170847510686
114763.75	100	717	19	1	37	33	7	4	0	0	0	stim008_stimuli_original_animals_fish_4.png	E	0	0	0	443.370854629902	443.570850046352
114863.75	100	718	19	1	37	34	4	12	0	0	0	stim005_stimuli_original_animals_fish_1.png	T	0	0	0	443.770856190473	443.97086404101
114963.75	100	719	19	1	37	35	6	11	0	0	0	stim007_stimuli_original_animals_fish_3.png	R	0	0	0	444.170867015608	444.371299582301
117668	100	720	20	0	9	0	12	1	0	0	0	stim013_stimuli_original_vehicles_planes_1.png	B	0	0	0	454.987816354958	455.187810552074
117768	100	721	20	0	9	1	13	0	0	0	0	stim014_stimuli_original_vehicles_planes_2.png	A	0	0	0	455.38781815907	455.587826253613
117868	100	722	20	0	9	2	8	5	0	0	0	stim009_stimuli_original_vehicles_boats_1.png	F	0	0	0	455.787838492775	455.987834640546
117968	100	723	20	0	9	3	11	2	0	0	0	stim012_stimuli_original_vehicles_boats_4.png	C	0	0	0	456.187845416833	456.387849854305
118068	100	724	20	0	9	4	0	6	0	0	0	stim001_stimuli_original_animals_birds_1.png	G	0	0	0	456.587850634474	456.787859460339
118168	100	725	20	0	9	5	2	8	0	1	0	stim003_stimuli_original_animals_birds_3.png	K	0	0	0	456.987867554883	457.187871992122
118268	100	726	20	0	9	6	10	7	1	0	0	stim011_stimuli_original_vehicles_boats_3.png	J	0	0	0	457.387876917142	457.587883548811
118368	100	727	20	0	9	7	4	8	0	1	0	stim005_stimuli_original_animals_fish_1.png	K	0	0	0	457.787897250848	457.987896811916
118468	100	728	20	0	9	8	10	15	1	0	1	stim011_stimuli_original_vehicles_boats_3.png	Y	0	0	0	458.187915390357	458.387914219871
118568	100	729	20	0	9	9	15	4	0	0	0	stim016_stimuli_original_vehicles_planes_4.png	E	0	0	0	458.587948401924	458.787926507881
118668	100	730	20	0	9	10	7	3	0	0	0	stim008_stimuli_original_animals_fish_4.png	D	0	0	0	458.987928507151	459.187937089242
118768	100	731	20	0	9	11	1	10	0	0	0	stim002_stimuli_original_animals_birds_2.png	Q	0	0	0	459.387959812302	459.588397255167
118868	100	732	20	0	9	12	5	9	0	0	0	stim006_stimuli_original_animals_fish_2.png	L	0	0	0	459.787954302272	459.987954594893
118968	100	733	20	0	9	13	10	14	0	0	0	stim011_stimuli_original_vehicles_boats_3.png	V	0	0	0	460.187961470336	460.387961275177
119068	100	734	20	0	9	14	9	13	0	0	0	stim010_stimuli_original_vehicles_boats_2.png	U	a	460.779785467079	0	460.587973514339	460.787981365109
119168	100	735	20	0	9	15	6	11	0	0	0	stim007_stimuli_original_animals_fish_3.png	R	0	0	0	460.9879840957	461.187989995815
119268	100	736	20	0	9	16	3	12	0	0	0	stim004_stimuli_original_animals_birds_4.png	T	0	0	0	461.388012962881	461.587986192433
119368	100	737	20	0	9	17	14	8	0	0	0	stim015_stimuli_original_vehicles_planes_3.png	K	0	0	0	461.788006721297	461.988023836631
119468	100	738	20	0	9	18	8	14	0	0	0	stim009_stimuli_original_vehicles_boats_1.png	V	0	0	0	462.188034856925	462.388019545702
119568	100	739	20	0	9	19	12	3	0	0	0	stim013_stimuli_original_vehicles_planes_1.png	D	0	0	0	462.588029102888	462.788028664188
119668	100	740	20	0	9	20	11	6	0	0	0	stim012_stimuli_original_vehicles_boats_4.png	G	0	0	0	462.988011890091	463.18802754255
119768	100	741	20	0	9	21	13	9	0	0	0	stim014_stimuli_original_vehicles_planes_2.png	L	0	0	0	463.388034661766	463.588057141053
119868	100	742	20	0	9	22	14	10	0	0	0	stim015_stimuli_original_vehicles_planes_3.png	Q	0	0	0	463.78804768133	463.988049436593
119968	100	743	20	0	9	23	9	5	0	0	0	stim010_stimuli_original_vehicles_boats_2.png	F	0	0	0	464.188053630292	464.388056604657
120068	100	744	20	0	9	24	10	1	0	0	0	stim011_stimuli_original_vehicles_boats_3.png	B	0	0	0	464.588064942975	464.788076207042
120168	100	745	20	0	9	25	3	7	0	0	0	stim004_stimuli_original_animals_birds_4.png	J	0	0	0	464.988082594704	465.188078742474
120268	100	746	20	0	9	26	4	15	0	0	0	stim005_stimuli_original_animals_fish_1.png	Y	0	0	0	465.388086593244	465.588087129639
120368	100	747	20	0	9	27	15	10	0	1	0	stim016_stimuli_original_vehicles_planes_4.png	Q	0	0	0	465.788096930832	465.988132087979
120468	100	748	20	0	9	28	8	4	1	0	0	stim009_stimuli_original_vehicles_boats_1.png	E	0	0	0	466.188135793898	466.388116338057
120568	100	749	20	0	9	29	7	10	0	1	0	stim008_stimuli_original_animals_fish_4.png	Q	0	0	0	466.588121506851	466.78812765074
120668	100	750	20	0	9	30	8	2	1	0	1	stim009_stimuli_original_vehicles_boats_1.png	C	0	0	0	466.988131112885	467.18813164928
120768	100	751	20	0	9	31	6	0	0	0	0	stim007_stimuli_original_animals_fish_3.png	A	0	0	0	467.388140475145	467.588142474415
120868	100	752	20	0	9	32	2	11	0	0	0	stim003_stimuli_original_animals_birds_3.png	R	0	0	0	467.788156420225	467.988157200394
120968	100	753	20	0	9	33	5	8	0	0	0	stim006_stimuli_original_animals_fish_2.png	K	0	0	0	468.188163832063	468.388162418036
121068	100	754	20	0	9	34	0	13	0	0	0	stim001_stimuli_original_animals_birds_1.png	U	0	0	0	468.588206352433	468.788190309657
121168	100	755	20	0	9	35	1	12	0	0	0	stim002_stimuli_original_animals_birds_2.png	T	0	0	0	468.988189139403	469.188188944478
122805.5	100	756	21	1	7	0	13	7	0	0	0	stim014_stimuli_original_vehicles_planes_2.png	J	0	0	0	475.538362195482	475.738362000324
122905.5	100	757	21	1	7	1	2	9	0	0	0	stim003_stimuli_original_animals_birds_3.png	L	0	0	0	475.938373751938	476.138370631263
123005.5	100	758	21	1	7	2	14	1	0	0	0	stim015_stimuli_original_vehicles_planes_3.png	B	0	0	0	476.338379944675	476.538380237296
123105.5	100	759	21	1	7	3	3	12	0	0	0	stim004_stimuli_original_animals_birds_4.png	T	0	0	0	476.738398084184	476.93839569483
123205.5	100	760	21	1	7	4	10	0	0	0	0	stim011_stimuli_original_vehicles_boats_3.png	A	0	0	0	477.138401351171	477.338400180917
123305.5	100	761	21	1	7	5	6	6	0	0	0	stim007_stimuli_original_animals_fish_3.png	G	0	0	0	477.538414858282	477.738418807974
123405.5	100	762	21	1	7	6	8	15	0	1	0	stim009_stimuli_original_vehicles_boats_1.png	Y	0	0	0	477.938422757667	478.138419393217
123505.5	100	763	21	1	7	7	12	4	0	0	0	stim013_stimuli_original_vehicles_planes_1.png	E	0	0	0	478.338439678075	478.538469959283
123605.5	100	764	21	1	7	8	4	15	0	1	1	stim005_stimuli_original_animals_fish_1.png	Y	0	0	0	478.738447821233	478.93844421301
123705.5	100	765	21	1	7	9	2	11	1	0	0	stim003_stimuli_original_animals_birds_3.png	R	0	0	0	479.138452063547	479.338457232341
123805.5	100	766	21	1	7	10	5	10	0	0	0	stim006_stimuli_original_animals_fish_2.png	Q	0	0	0	479.538459231611	479.738514868775
123905.5	100	767	21	1	7	11	2	15	1	0	0	stim003_stimuli_original_animals_birds_3.png	Y	0	0	0	479.938506871928	480.138475469314
124005.5	100	768	21	1	7	12	1	2	0	0	0	stim002_stimuli_original_animals_birds_2.png	C	0	0	0	480.338480394334	480.538484344026
124105.5	100	769	21	1	7	13	7	5	0	0	0	stim008_stimuli_original_animals_fish_4.png	F	0	0	0	480.738492926117	480.938494925154
124205.75	100	770	21	1	7	14	9	13	0	0	0	stim010_stimuli_original_vehicles_boats_2.png	U	0	0	0	481.138758044457	481.338511845563
124305.5	100	771	21	1	7	15	15	3	0	0	0	stim016_stimuli_original_vehicles_planes_4.png	D	0	0	0	481.53851482016	481.73851633165
124405.5	100	772	21	1	7	16	0	8	0	0	0	stim001_stimuli_original_animals_birds_1.png	K	0	0	0	481.938531984342	482.138532032957
124505.5	100	773	21	1	7	17	11	14	0	0	0	stim012_stimuli_original_vehicles_boats_4.png	V	0	0	0	482.338533057133	482.538541882997
124605.75	100	774	21	1	7	18	14	11	0	0	0	stim015_stimuli_original_vehicles_planes_3.png	R	0	0	0	482.738550952636	482.938554414781
124705.75	100	775	21	1	7	19	8	0	0	0	0	stim009_stimuli_original_vehicles_boats_1.png	A	0	0	0	483.138556901598	483.338561582845
124805.75	100	776	21	1	7	20	3	15	0	0	0	stim004_stimuli_original_animals_birds_4.png	Y	0	0	0	483.538566507632	483.738576796371
124905.75	100	777	21	1	7	21	13	9	0	0	0	stim014_stimuli_original_vehicles_planes_2.png	L	0	0	0	483.938584647141	484.138584939763
125005.75	100	778	21	1	7	22	5	7	0	0	0	stim006_stimuli_original_animals_fish_2.png	J	0	0	0	484.338588645682	484.538611124735
125105.75	100	779	21	1	7	23	2	1	0	0	0	stim003_stimuli_original_animals_birds_3.png	B	0	0	0	484.738605322083	484.938608540455
125205.75	100	780	21	1	7	24	15	2	0	1	0	stim016_stimuli_original_vehicles_planes_4.png	C	0	0	0	485.138609564397	485.338614976965
125305.75	100	781	21	1	7	25	10	5	0	0	0	stim011_stimuli_original_vehicles_boats_3.png	F	0	0	0	485.538622583961	485.738624095451
125405.75	100	782	21	1	7	26	11	2	0	1	1	stim012_stimuli_original_vehicles_boats_4.png	C	0	0	0	485.938635359518	486.138628337765
125505.75	100	783	21	1	7	27	15	4	1	0	0	stim016_stimuli_original_vehicles_planes_4.png	E	0	0	0	486.3386466722	486.538979520788
125605.75	100	784	21	1	7	28	4	12	0	0	0	stim005_stimuli_original_animals_fish_1.png	T	0	0	0	486.738652864937	486.93866681098
125705.75	100	785	21	1	7	29	15	8	1	0	0	stim016_stimuli_original_vehicles_planes_4.png	K	0	0	0	487.138682707213	487.33868202474
125805.75	100	786	21	1	7	30	6	6	0	0	0	stim007_stimuli_original_animals_fish_3.png	G	0	0	0	487.538687924854	487.73869504407
125905.75	100	787	21	1	7	31	0	10	0	0	0	stim001_stimuli_original_animals_birds_1.png	Q	0	0	0	487.938701431965	488.138690509135
126005.75	100	788	21	1	7	32	12	3	0	0	0	stim013_stimuli_original_vehicles_planes_1.png	D	0	0	0	488.33869153331	488.538699871395
126105.75	100	789	21	1	7	33	1	14	0	0	0	stim002_stimuli_original_animals_birds_2.png	V	0	0	0	488.73870333354	488.938710208982
126205.75	100	790	21	1	7	34	9	2	0	0	0	stim010_stimuli_original_vehicles_boats_2.png	C	0	0	0	489.138726349222	489.338724691188
126305.75	100	791	21	1	7	35	7	13	0	0	0	stim008_stimuli_original_animals_fish_4.png	U	0	0	0	489.538731810404	489.738731859252
128660	100	792	22	0	26	0	15	11	0	0	0	stim016_stimuli_original_vehicles_planes_4.png	R	0	0	0	498.955676907441	499.155683051562
128760	100	793	22	0	26	1	11	8	0	0	0	stim012_stimuli_original_vehicles_boats_4.png	K	0	0	0	499.355667984113	499.555658768164
128860	100	794	22	0	26	2	14	13	0	0	0	stim015_stimuli_original_vehicles_planes_3.png	U	0	0	0	499.755664912052	499.955674225697
128960	100	795	22	0	26	3	12	3	0	0	0	stim013_stimuli_original_vehicles_planes_1.png	D	0	0	0	500.155678906711	500.35609343159
129060	100	796	22	0	26	4	6	2	0	0	0	stim007_stimuli_original_animals_fish_3.png	C	0	0	0	500.555686074775	500.755690756021
129160	100	797	22	0	26	5	9	7	1	0	0	stim010_stimuli_original_vehicles_boats_2.png	J	0	0	0	500.955700069433	501.155705725774
129260	100	798	22	0	26	6	5	5	0	0	0	stim006_stimuli_original_animals_fish_2.png	F	0	0	0	501.355713820318	501.555708748987
129360	100	799	22	0	26	7	9	6	1	0	1	stim010_stimuli_original_vehicles_boats_2.png	G	0	0	0	501.75572269503	501.955727863824
129460	100	800	22	0	26	8	13	15	0	0	0	stim014_stimuli_original_vehicles_planes_2.png	Y	0	0	0	502.155730106868	502.35573113081
