onset	duration	eventnumber	sequencenumber	condition	streamnumber	stimnumber	objectstimnumber	letterstimnumber	objecttarget	lettertarget	is2back	objectstim	letterstim	response	rt	correct	time_stimon	time_stimoff
42635.25	100	0	0	0	39	0	13	15	0	0	0	stim014_stimuli_original_vehicles_planes_2.png	Y	0	0	0	60.0737433331087	60.2737497207709
42735.5	100	1	0	0	39	1	5	14	0	0	0	stim006_stimuli_original_animals_fish_2.png	V	0	0	0	60.4745536092669	60.6737646907568
42835.25	100	2	0	0	39	2	8	6	0	0	0	stim009_stimuli_original_vehicles_boats_1.png	G	0	0	0	60.8737610823009	61.0737677139696
42935.25	100	3	0	0	39	3	7	10	0	0	0	stim008_stimuli_original_animals_fish_4.png	Q	0	0	0	61.2737714198884	61.4737821961753
43035.25	100	4	0	0	39	4	12	9	0	0	0	stim013_stimuli_original_vehicles_planes_1.png	L	0	0	0	61.67379443557	61.8737896080129
43135.25	100	5	0	0	39	5	1	2	1	0	0	stim002_stimuli_original_animals_birds_2.png	C	0	0	0	62.0737962396815	62.2737972636241
43235.25	100	6	0	0	39	6	11	12	0	0	0	stim012_stimuli_original_vehicles_boats_4.png	T	0	0	0	62.4738080401439	62.6738151593599
43335.25	100	7	0	0	39	7	1	13	1	0	1	stim002_stimuli_original_animals_birds_2.png	U	0	0	0	62.8738181337249	63.0738186701201
43435.25	100	8	0	0	39	8	6	8	0	0	0	stim007_stimuli_original_animals_fish_3.png	K	0	0	0	63.273827252211	63.4738297390286
43535.25	100	9	0	0	39	9	3	4	0	0	0	stim004_stimuli_original_animals_birds_4.png	E	d	63.6666135161649	1	63.6738436850719	63.8738417832647
43635.25	100	10	0	0	39	10	2	1	0	0	0	stim003_stimuli_original_animals_birds_3.png	B	0	0	0	64.0738513406832	64.2738499264233
43735.25	100	11	0	0	39	11	1	15	0	1	0	stim002_stimuli_original_animals_birds_2.png	Y	0	0	0	64.4738599713892	64.6738709916826
43835.25	100	12	0	0	39	12	9	0	0	0	0	stim010_stimuli_original_vehicles_boats_2.png	A	0	0	0	64.8738700652029	65.0738737711217
43935.25	100	13	0	0	39	13	10	15	0	1	0	stim011_stimuli_original_vehicles_boats_3.png	Y	0	0	0	65.2738784521352	65.4738833771553
44035.25	100	14	0	0	39	14	15	11	0	0	0	stim016_stimuli_original_vehicles_planes_4.png	R	0	0	0	65.6738973229658	65.8738927394152
44135.25	100	15	0	0	39	15	0	3	0	0	0	stim001_stimuli_original_animals_birds_1.png	D	0	0	0	66.0739030281547	66.2739047836512
44235.25	100	16	0	0	39	16	14	5	0	0	0	stim015_stimuli_original_vehicles_planes_3.png	F	0	0	0	66.473909952445	66.673915608786
44335.25	100	17	0	0	39	17	4	7	0	0	0	stim005_stimuli_original_animals_fish_1.png	J	0	0	0	66.8739224842284	67.0739249710459
44435.25	100	18	0	0	39	18	7	4	0	0	0	stim008_stimuli_original_animals_fish_4.png	E	0	0	0	67.2739323340356	67.4739301886875
44535.25	100	19	0	0	39	19	5	14	0	0	0	stim006_stimuli_original_animals_fish_2.png	V	0	0	0	67.6739480353426	67.8739500346128
44635.25	100	20	0	0	39	20	3	0	0	0	0	stim004_stimuli_original_animals_birds_4.png	A	0	0	0	68.0739559349604	68.2739425741602
44735.25	100	21	0	0	39	21	11	15	0	0	0	stim012_stimuli_original_vehicles_boats_4.png	Y	0	0	0	68.4739709047135	68.6739765610546
44835.25	100	22	0	0	39	22	15	10	1	0	0	stim016_stimuli_original_vehicles_planes_4.png	Q	0	0	0	68.8739619813859	69.073948376812
44935.25	100	23	0	0	39	23	0	9	0	0	0	stim001_stimuli_original_animals_birds_1.png	L	0	0	0	69.2739579339977	69.4739838265814
45035.25	100	24	0	0	39	24	15	1	1	0	1	stim016_stimuli_original_vehicles_planes_4.png	B	0	0	0	69.6740038678981	69.8740031851921
45135.25	100	25	0	0	39	25	1	2	0	0	0	stim002_stimuli_original_animals_birds_2.png	C	0	0	0	70.0740163996816	70.2740135225467
45235.25	100	26	0	0	39	26	4	3	0	0	0	stim005_stimuli_original_animals_fish_1.png	D	d	70.4666115168948	1	70.4740060132463	70.6740258105565
45335.25	100	27	0	0	39	27	8	6	0	0	0	stim009_stimuli_original_vehicles_boats_1.png	G	0	0	0	70.8740195203573	71.0740622358862
45435.25	100	28	0	0	39	28	13	1	0	1	0	stim014_stimuli_original_vehicles_planes_2.png	B	0	0	0	71.2740415607113	71.4740484361537
45535.25	100	29	0	0	39	29	12	11	0	0	0	stim013_stimuli_original_vehicles_planes_1.png	R	0	0	0	71.6740538487211	71.8740563355386
45635.25	100	30	0	0	39	30	2	1	0	1	0	stim003_stimuli_original_animals_birds_3.png	B	0	0	0	72.0740675996058	72.2740547263529
45735.25	100	31	0	0	39	31	9	12	0	0	0	stim010_stimuli_original_vehicles_boats_2.png	T	0	0	0	72.4740572134033	72.6740772544872
45835.25	100	32	0	0	39	32	10	7	0	0	0	stim011_stimuli_original_vehicles_boats_3.png	J	0	0	0	72.8740741335787	73.0740875918418
45935.25	100	33	0	0	39	33	6	8	0	0	0	stim007_stimuli_original_animals_fish_3.png	K	0	0	0	73.2741154350806	73.4741015865002
46035.25	100	34	0	0	39	34	14	5	0	0	0	stim015_stimuli_original_vehicles_planes_3.png	F	0	0	0	73.6741043173242	73.8741107049864
46135.25	100	35	0	0	39	35	15	13	0	0	0	stim016_stimuli_original_vehicles_planes_4.png	U	0	0	0	74.0741022205912	74.2741037320811
46873	100	36	1	1	4	0	8	1	0	0	0	stim009_stimuli_original_vehicles_boats_1.png	B	0	0	0	77.0241846768185	77.2242073998787
46973	100	37	1	1	4	1	7	10	0	0	0	stim008_stimuli_original_animals_fish_4.png	Q	0	0	0	77.4242067171726	77.6241982327774
47073	100	38	1	1	4	2	14	13	0	0	0	stim015_stimuli_original_vehicles_planes_3.png	U	0	0	0	77.8242211996112	78.0244752976578
47173	100	39	1	1	4	3	12	5	0	0	0	stim013_stimuli_original_vehicles_planes_1.png	F	0	0	0	78.2242278798949	78.4242389001884
47273	100	40	1	1	4	4	3	0	0	0	0	stim004_stimuli_original_animals_birds_4.png	A	0	0	0	78.6242318784352	78.8242404605262
47373	100	41	1	1	4	5	0	12	0	0	0	stim001_stimuli_original_animals_birds_1.png	T	0	0	0	79.0242490426172	79.2242347064894
47473	100	42	1	1	4	6	7	8	1	0	0	stim008_stimuli_original_animals_fish_4.png	K	0	0	0	79.4242627935018	79.6242657678667
47573	100	43	1	1	4	7	13	6	0	0	0	stim014_stimuli_original_vehicles_planes_2.png	G	0	0	0	79.824257039465	80.0242544063367
47673	100	44	1	1	4	8	7	9	1	0	0	stim008_stimuli_original_animals_fish_4.png	L	0	0	0	80.2242637199815	80.4242859552614
47773	100	45	1	1	4	9	2	11	0	0	0	stim003_stimuli_original_animals_birds_3.png	R	0	0	0	80.6242969755549	80.8243109213654
47873	100	46	1	1	4	10	9	4	0	0	0	stim010_stimuli_original_vehicles_boats_2.png	E	0	0	0	81.0243038996123	81.2242910265923
47973	100	47	1	1	4	11	1	10	0	1	0	stim002_stimuli_original_animals_birds_2.png	Q	0	0	0	81.4243169191759	81.6243157489225
48073	100	48	1	1	4	12	5	7	0	0	0	stim006_stimuli_original_animals_fish_2.png	J	0	0	0	81.8243182357401	82.0243294995744
48173	100	49	1	1	4	13	15	10	0	1	1	stim016_stimuli_original_vehicles_planes_4.png	Q	0	0	0	82.2243349121418	82.424336911412
48273	100	50	1	1	4	14	6	14	0	0	0	stim007_stimuli_original_animals_fish_3.png	V	0	0	0	82.6243481754791	82.8243528567255
48373	100	51	1	1	4	15	4	15	0	0	0	stim005_stimuli_original_animals_fish_1.png	Y	d	83.0169613347389	1	83.024339008145	83.2243588054553
48473	100	52	1	1	4	16	11	3	0	0	0	stim012_stimuli_original_vehicles_boats_4.png	D	0	0	0	83.4243534905836	83.6243796269409
48573	100	53	1	1	4	17	10	2	0	0	0	stim011_stimuli_original_vehicles_boats_3.png	C	0	0	0	83.8243760184851	84.0243629014585
48673	100	54	1	1	4	18	2	10	0	0	0	stim003_stimuli_original_animals_birds_3.png	Q	0	0	0	84.2243880627211	84.4243917686399
48773	100	55	1	1	4	19	3	11	0	0	0	stim004_stimuli_original_animals_birds_4.png	R	0	0	0	84.6243986440822	84.8244035688695
48873	100	56	1	1	4	20	15	4	0	0	0	stim016_stimuli_original_vehicles_planes_4.png	E	0	0	0	85.0244094692171	85.2244097618386
48973	100	57	1	1	4	21	14	6	0	0	0	stim015_stimuli_original_vehicles_planes_3.png	G	0	0	0	85.424416637281	85.6244220498484
49073	100	58	1	1	4	22	10	15	1	0	0	stim011_stimuli_original_vehicles_boats_3.png	Y	0	0	0	85.8244379460812	86.0244192215614
49173	100	59	1	1	4	23	7	5	0	0	0	stim008_stimuli_original_animals_fish_4.png	F	0	0	0	86.2244421883952	86.4244302904699
49273	100	60	1	1	4	24	10	1	1	0	0	stim011_stimuli_original_vehicles_boats_3.png	B	0	0	0	86.6244235124905	86.8244535499252
49373	100	61	1	1	4	25	4	9	0	0	0	stim005_stimuli_original_animals_fish_1.png	L	0	0	0	87.0244479910471	87.2244765656069
49473	100	62	1	1	4	26	11	2	0	0	0	stim012_stimuli_original_vehicles_boats_4.png	C	0	0	0	87.424470762955	87.6244747126475
49573	100	63	1	1	4	27	9	7	0	1	0	stim010_stimuli_original_vehicles_boats_2.png	J	0	0	0	87.8244881709106	88.0244855377823
49673	100	64	1	1	4	28	6	13	0	0	0	stim007_stimuli_original_animals_fish_3.png	U	0	0	0	88.2244768093806	88.4244858790189
49773	100	65	1	1	4	29	8	7	0	1	1	stim009_stimuli_original_vehicles_boats_1.png	J	0	0	0	88.6247575315647	88.8245145021938
49873	100	66	1	1	4	30	12	0	0	0	0	stim013_stimuli_original_vehicles_planes_1.png	A	d	89.2162618942093	1	89.0244982158765	89.2245177694131
49973	100	67	1	1	4	31	0	3	0	0	0	stim001_stimuli_original_animals_birds_1.png	D	0	0	0	89.4245251324028	89.6245276192203
50073	100	68	1	1	4	32	5	12	0	0	0	stim006_stimuli_original_animals_fish_2.png	T	0	0	0	89.8245357137639	90.0245382005814
50173	100	69	1	1	4	33	13	14	0	0	0	stim014_stimuli_original_vehicles_planes_2.png	V	0	0	0	90.2245465388987	90.4245487819426
50273	100	70	1	1	4	34	10	7	0	0	0	stim011_stimuli_original_vehicles_boats_3.png	J	0	0	0	90.6245381031185	90.8245654583443
50373	100	71	1	1	4	35	1	8	0	0	0	stim002_stimuli_original_animals_birds_2.png	K	0	0	0	91.0245681891683	91.2245560474694
52135.5	100	72	2	0	2	0	15	13	0	0	0	stim016_stimuli_original_vehicles_planes_4.png	U	0	0	0	98.0747351497412	98.2747578728013
52235.5	100	73	2	0	2	1	14	9	0	0	0	stim015_stimuli_original_vehicles_planes_3.png	L	0	0	0	98.4747501197271	98.6747738178819
52335.5	100	74	2	0	2	2	4	15	0	0	0	stim005_stimuli_original_animals_fish_1.png	Y	0	0	0	98.8747758171521	99.0747814734932
52435.5	100	75	2	0	2	3	8	4	0	0	0	stim009_stimuli_original_vehicles_boats_1.png	E	0	0	0	99.274790787138	99.4747727939393
52535.5	100	76	2	0	2	4	0	7	0	0	0	stim001_stimuli_original_animals_birds_1.png	J	0	0	0	99.6747884466313	99.8747938591987
52635.5	100	77	2	0	2	5	2	10	0	0	0	stim003_stimuli_original_animals_birds_3.png	Q	0	0	0	100.074816094479	100.274812486256
52735.5	100	78	2	0	2	6	7	6	1	0	0	stim008_stimuli_original_animals_fish_4.png	G	0	0	0	100.47480058833	100.674822092289
52835.5	100	79	2	0	2	7	11	11	0	0	0	stim012_stimuli_original_vehicles_boats_4.png	R	0	0	0	100.874813120114	101.074834380299
52935.5	100	80	2	0	2	8	7	14	1	0	1	stim008_stimuli_original_animals_fish_4.png	V	0	0	0	101.274844912812	101.474843255011
53035.5	100	81	2	0	2	9	12	5	0	1	0	stim013_stimuli_original_vehicles_planes_1.png	F	0	0	0	101.674841840751	101.874857493443
53135.5	100	82	2	0	2	10	9	1	0	0	0	stim010_stimuli_original_vehicles_boats_2.png	B	0	0	0	102.074862906011	102.274864905281
53235.5	100	83	2	0	2	11	5	5	0	1	0	stim006_stimuli_original_animals_fish_2.png	F	0	0	0	102.474881289294	102.674856469501
53335.5	100	84	2	0	2	12	10	8	0	0	0	stim011_stimuli_original_vehicles_boats_3.png	K	0	0	0	102.874883580953	103.074886555551
53435.5	100	85	2	0	2	13	3	3	0	0	0	stim004_stimuli_original_animals_birds_4.png	D	0	0	0	103.27488440997	103.474887872115
53535.5	100	86	2	0	2	14	6	0	0	0	0	stim007_stimuli_original_animals_fish_3.png	A	0	0	0	103.674895478878	103.874918933259
53635.5	100	87	2	0	2	15	13	12	0	0	0	stim014_stimuli_original_vehicles_planes_2.png	T	0	0	0	104.074897526996	104.274916592753
53735.5	100	88	2	0	2	16	1	2	0	0	0	stim002_stimuli_original_animals_birds_2.png	C	0	0	0	104.474924687296	104.674928636989
53835.5	100	89	2	0	2	17	7	5	0	0	0	stim008_stimuli_original_animals_fish_4.png	F	0	0	0	104.874934049556	105.074940437451
53935.5	100	90	2	0	2	18	5	7	0	0	0	stim006_stimuli_original_animals_fish_2.png	J	0	0	0	105.275145285996	105.474958576728
54035.5	100	91	2	0	2	19	2	1	0	0	0	stim003_stimuli_original_animals_birds_3.png	B	0	0	0	105.674956675153	105.874962575268
54135.5	100	92	2	0	2	20	12	13	0	0	0	stim013_stimuli_original_vehicles_planes_1.png	U	0	0	0	106.074953846866	106.274972668849
54235.5	100	93	2	0	2	21	0	6	0	0	0	stim001_stimuli_original_animals_birds_1.png	G	0	0	0	106.474965647329	106.674978374038
54335.5	100	94	2	0	2	22	3	3	0	0	0	stim004_stimuli_original_animals_birds_4.png	D	0	0	0	106.87501767627	107.075002608821
54435.5	100	95	2	0	2	23	8	10	0	0	0	stim009_stimuli_original_vehicles_boats_1.png	Q	0	0	0	107.275010947138	107.475008801557
54535.5	100	96	2	0	2	24	5	5	1	0	0	stim006_stimuli_original_animals_fish_2.png	F	0	0	0	107.675013726577	107.875002559973
54635.5	100	97	2	0	2	25	1	9	0	0	0	stim002_stimuli_original_animals_birds_2.png	L	0	0	0	108.075023576384	108.275031670928
54735.5	100	98	2	0	2	26	5	12	1	0	1	stim006_stimuli_original_animals_fish_2.png	T	0	0	0	108.47503805859	108.67504005786
54835.5	100	99	2	0	2	27	14	7	0	1	0	stim015_stimuli_original_vehicles_planes_3.png	J	0	0	0	108.875046689529	109.075050151674
54935.5	100	100	2	0	2	28	11	11	0	0	0	stim012_stimuli_original_vehicles_boats_4.png	R	0	0	0	109.275062878383	109.475064390106
55035.5	100	101	2	0	2	29	6	7	0	1	0	stim007_stimuli_original_animals_fish_3.png	J	0	0	0	109.67506907112	109.875071314164
55135.5	100	102	2	0	2	30	10	2	0	0	0	stim011_stimuli_original_vehicles_boats_3.png	C	0	0	0	110.07507892116	110.275087259477
55235.5	100	103	2	0	2	31	7	0	0	0	0	stim008_stimuli_original_animals_fish_4.png	A	0	0	0	110.475093159592	110.675528164487
55335.5	100	104	2	0	2	32	4	8	0	0	0	stim005_stimuli_original_animals_fish_1.png	K	0	0	0	110.875075702788	111.075101839146
55435.5	100	105	2	0	2	33	15	4	0	0	0	stim016_stimuli_original_vehicles_planes_4.png	E	0	0	0	111.275096036494	111.475113395834
55535.5	100	106	2	0	2	34	9	14	0	0	0	stim010_stimuli_original_vehicles_boats_2.png	V	0	0	0	111.675121977925	111.875109836226
55635.5	100	107	2	0	2	35	13	15	0	0	0	stim014_stimuli_original_vehicles_planes_2.png	Y	0	0	0	112.075133046834	112.275136021199
57548.25	100	108	3	1	13	0	7	1	0	0	0	stim008_stimuli_original_animals_fish_4.png	B	0	0	0	119.725305273896	119.925335311098
57648.25	100	109	3	1	13	1	10	6	0	0	0	stim011_stimuli_original_vehicles_boats_3.png	G	0	0	0	120.125344868517	120.325343942037
57748.25	100	110	3	1	13	2	14	13	0	0	0	stim015_stimuli_original_vehicles_planes_3.png	U	0	0	0	120.525350085925	120.72535647382
57848.25	100	111	3	1	13	3	11	9	0	0	0	stim012_stimuli_original_vehicles_boats_4.png	L	0	0	0	120.925335554872	121.125349256909
57948.25	100	112	3	1	13	4	2	12	0	0	0	stim003_stimuli_original_animals_birds_3.png	T	0	0	0	121.325381000992	121.525379343191
58048.25	100	113	3	1	13	5	15	3	1	0	0	stim016_stimuli_original_vehicles_planes_4.png	D	0	0	0	121.725386706181	121.925386511022
58148.25	100	114	3	1	13	6	13	11	0	0	0	stim014_stimuli_original_vehicles_planes_2.png	R	0	0	0	122.125377051299	122.325380757218
58248.25	100	115	3	1	13	7	15	8	1	0	0	stim016_stimuli_original_vehicles_planes_4.png	K	0	0	0	122.525826733327	122.725395970978
58348.25	100	116	3	1	13	8	4	2	0	1	0	stim005_stimuli_original_animals_fish_1.png	C	0	0	0	122.92538748635	123.125405333238
58448.25	100	117	3	1	13	9	0	5	0	0	0	stim001_stimuli_original_animals_birds_1.png	F	0	0	0	123.325417084852	123.525421034545
58548.25	100	118	3	1	13	10	12	2	0	1	1	stim013_stimuli_original_vehicles_planes_1.png	C	0	0	0	123.725425959565	123.925433078781
58648.25	100	119	3	1	13	11	15	10	0	0	0	stim016_stimuli_original_vehicles_planes_4.png	Q	0	0	0	124.125436053146	124.325443903916
58748.25	100	120	3	1	13	12	8	7	0	0	0	stim009_stimuli_original_vehicles_boats_1.png	J	d	124.518033608561	1	124.525447853608	124.725451803301
58848.25	100	121	3	1	13	13	6	4	0	0	0	stim007_stimuli_original_animals_fish_3.png	E	0	0	0	124.925464286236	125.125472868327
58948.25	100	122	3	1	13	14	5	0	0	0	0	stim006_stimuli_original_animals_fish_2.png	A	0	0	0	125.325472429628	125.525471746922
59048.25	100	123	3	1	13	15	9	2	0	0	0	stim010_stimuli_original_vehicles_boats_2.png	C	0	0	0	125.725482035661	125.925484034931
59148.25	100	124	3	1	13	16	1	14	0	0	0	stim002_stimuli_original_animals_birds_2.png	V	0	0	0	126.125496030319	126.325492909644
59248.25	100	125	3	1	13	17	3	15	0	0	0	stim004_stimuli_original_animals_birds_4.png	Y	0	0	0	126.5255119754	126.725510561373
59348.25	100	126	3	1	13	18	15	3	0	0	0	stim016_stimuli_original_vehicles_planes_4.png	D	0	0	0	126.925513779512	127.125516754109
59448.25	100	127	3	1	13	19	14	1	0	0	0	stim015_stimuli_original_vehicles_planes_3.png	B	0	0	0	127.325520947576	127.525525628822
59548.25	100	128	3	1	13	20	2	9	0	0	0	stim003_stimuli_original_animals_birds_3.png	L	0	0	0	127.725534942234	127.925754175754
59648.25	100	129	3	1	13	21	0	5	0	0	0	stim001_stimuli_original_animals_birds_1.png	F	0	0	0	128.125546498923	128.325550936162
59748.25	100	130	3	1	13	22	4	6	0	0	0	stim005_stimuli_original_animals_fish_1.png	G	0	0	0	128.525537331589	128.725569563219
59848.25	100	131	3	1	13	23	7	8	0	0	0	stim008_stimuli_original_animals_fish_4.png	K	0	0	0	128.925575707108	129.125581363682
59948.25	100	132	3	1	13	24	10	15	0	0	0	stim011_stimuli_original_vehicles_boats_3.png	Y	0	0	0	129.325583606726	129.525572927902
60048.25	100	133	3	1	13	25	2	12	1	0	0	stim003_stimuli_original_animals_birds_3.png	T	0	0	0	129.725576389814	129.925602282397
60148.25	100	134	3	1	13	26	5	0	0	0	0	stim006_stimuli_original_animals_fish_2.png	A	0	0	0	130.125599893043	130.325615789508
60248.25	100	135	3	1	13	27	2	4	1	0	0	stim003_stimuli_original_animals_birds_3.png	E	0	0	0	130.525624127826	130.72562637087
60348.25	100	136	3	1	13	28	8	15	0	1	0	stim009_stimuli_original_vehicles_boats_1.png	Y	0	0	0	130.925636172062	131.125637683552
60448.25	100	137	3	1	13	29	11	13	0	0	0	stim012_stimuli_original_vehicles_boats_4.png	U	0	0	0	131.325637244619	131.525639000116
60548.25	100	138	3	1	13	30	3	15	0	1	1	stim004_stimuli_original_animals_birds_4.png	Y	0	0	0	131.725649288855	131.925652263453
60648.25	100	139	3	1	13	31	12	2	0	0	0	stim013_stimuli_original_vehicles_planes_1.png	C	d	132.317427205853	1	132.125661333092	132.325659675291
60748.25	100	140	3	1	13	32	9	11	0	0	0	stim010_stimuli_original_vehicles_boats_2.png	R	0	0	0	132.525668013375	132.725676595466
60848.25	100	141	3	1	13	33	13	14	0	0	0	stim014_stimuli_original_vehicles_planes_2.png	V	0	0	0	132.925678107189	133.125686445506
60948.25	100	142	3	1	13	34	6	10	0	0	0	stim007_stimuli_original_animals_fish_3.png	Q	0	0	0	133.325693564722	133.525694832439
61048.25	100	143	3	1	13	35	1	7	0	0	0	stim002_stimuli_original_animals_birds_2.png	J	0	0	0	133.725699026138	133.925703950925
61644	100	144	4	0	11	0	14	1	0	0	0	stim015_stimuli_original_vehicles_planes_3.png	B	0	0	0	136.109098382993	136.309108915506
61744	100	145	4	0	11	1	7	14	0	0	0	stim008_stimuli_original_animals_fish_4.png	V	0	0	0	136.509099212009	136.709127298789
61844	100	146	4	0	11	2	8	6	0	0	0	stim009_stimuli_original_vehicles_boats_1.png	G	0	0	0	136.909125884762	137.109127883799
61944	100	147	4	0	11	3	13	8	0	0	0	stim014_stimuli_original_vehicles_planes_2.png	K	0	0	0	137.309140610741	137.509140415816
62044	100	148	4	0	11	4	3	10	0	0	0	stim004_stimuli_original_animals_birds_4.png	Q	0	0	0	137.709145828383	137.909156360896
62144	100	149	4	0	11	5	0	11	0	0	0	stim001_stimuli_original_animals_birds_1.png	R	0	0	0	138.109157628613	138.309161578305
62244	100	150	4	0	11	6	9	12	0	0	0	stim010_stimuli_original_vehicles_boats_2.png	T	0	0	0	138.509193566162	138.709170696791
62344	100	151	4	0	11	7	11	4	0	0	0	stim012_stimuli_original_vehicles_boats_4.png	E	0	0	0	138.909184155054	139.109183228575
62444	100	152	4	0	11	8	0	5	1	0	0	stim001_stimuli_original_animals_birds_1.png	F	0	0	0	139.309189128922	139.509180400521
62544	100	153	4	0	11	9	1	13	0	0	0	stim002_stimuli_original_animals_birds_2.png	U	0	0	0	139.709200685378	139.909215118969
62644	100	154	4	0	11	10	0	0	1	0	1	stim001_stimuli_original_animals_birds_1.png	A	d	140.101797509473	1	140.109202245716	140.309214485111
62744	100	155	4	0	11	11	2	11	0	1	0	stim003_stimuli_original_animals_birds_3.png	R	0	0	0	140.509209170006	140.709224822465
62844	100	156	4	0	11	12	15	2	0	0	0	stim016_stimuli_original_vehicles_planes_4.png	C	0	0	0	140.909218044719	141.109218581114
62944	100	157	4	0	11	13	6	11	0	1	0	stim007_stimuli_original_animals_fish_3.png	R	0	0	0	141.309240816394	141.509249398485
63044	100	158	4	0	11	14	10	3	0	0	0	stim011_stimuli_original_vehicles_boats_3.png	D	0	0	0	141.709255054826	141.909263393143
63144	100	159	4	0	11	15	12	15	0	0	0	stim013_stimuli_original_vehicles_planes_1.png	Y	0	0	0	142.109271000139	142.309267391684
63244	100	160	4	0	11	16	4	9	0	0	0	stim005_stimuli_original_animals_fish_1.png	L	0	0	0	142.509275242221	142.709280411014
63344	100	161	4	0	11	17	5	7	0	0	0	stim006_stimuli_original_animals_fish_2.png	J	0	0	0	142.909287774237	143.109273194335
63444	100	162	4	0	11	18	7	5	0	0	0	stim008_stimuli_original_animals_fish_4.png	F	0	0	0	143.30929689249	143.50929889176
63544	100	163	4	0	11	19	9	4	0	0	0	stim010_stimuli_original_vehicles_boats_2.png	E	0	0	0	143.709306254983	143.909312398871
63644	100	164	4	0	11	20	15	12	0	0	0	stim016_stimuli_original_vehicles_planes_4.png	T	0	0	0	144.10931610479	144.30930566974
63744	100	165	4	0	11	21	3	10	0	0	0	stim004_stimuli_original_animals_birds_4.png	Q	0	0	0	144.509333025198	144.709331611171
63844	100	166	4	0	11	22	11	6	1	0	0	stim012_stimuli_original_vehicles_boats_4.png	G	0	0	0	144.909347507404	145.109341948526
63944.25	100	167	4	0	11	23	2	15	0	0	0	stim003_stimuli_original_animals_birds_3.png	Y	0	0	0	145.309735262068	145.509358868934
64044	100	168	4	0	11	24	11	2	1	0	1	stim012_stimuli_original_vehicles_boats_4.png	C	0	0	0	145.709365013056	145.90934360656
64144	100	169	4	0	11	25	0	0	0	1	0	stim001_stimuli_original_animals_birds_1.png	A	d	146.301142442273	1	146.109376325738	146.309382713633
64244	100	170	4	0	11	26	13	1	0	0	0	stim014_stimuli_original_vehicles_planes_2.png	B	0	0	0	146.509385444224	146.709385249065
64344	100	171	4	0	11	27	5	0	0	1	0	stim006_stimuli_original_animals_fish_2.png	A	0	0	0	146.909380421741	147.109401194379
64444	100	172	4	0	11	28	4	11	0	0	0	stim005_stimuli_original_animals_fish_1.png	R	0	0	0	147.309407338267	147.509406411787
64544.25	100	173	4	0	11	29	12	9	0	0	0	stim013_stimuli_original_vehicles_planes_1.png	L	0	0	0	147.709417675855	147.909416749375
64644.25	100	174	4	0	11	30	11	0	0	0	0	stim012_stimuli_original_vehicles_boats_4.png	A	0	0	0	148.109424112365	148.309434157331
64744.25	100	175	4	0	11	31	10	3	0	0	0	stim011_stimuli_original_vehicles_boats_3.png	D	0	0	0	148.509438107023	148.709421820473
64844.25	100	176	4	0	11	32	8	13	0	0	0	stim009_stimuli_original_vehicles_boats_1.png	U	0	0	0	148.909446006408	149.109447274357
64944.25	100	177	4	0	11	33	6	8	0	0	0	stim007_stimuli_original_animals_fish_3.png	K	0	0	0	149.309469265863	149.509443714749
65044.25	100	178	4	0	11	34	14	7	0	0	0	stim015_stimuli_original_vehicles_planes_3.png	J	0	0	0	149.709451077739	149.909470875049
65144.25	100	179	4	0	11	35	1	14	0	0	0	stim002_stimuli_original_animals_birds_2.png	V	0	0	0	150.109480432235	150.309464877238
66723.25	100	180	5	1	33	0	13	7	0	0	0	stim014_stimuli_original_vehicles_planes_2.png	J	0	0	0	156.426314206095	156.626301332843
66823.25	100	181	5	1	33	1	7	8	0	0	0	stim008_stimuli_original_animals_fish_4.png	K	0	0	0	156.826324787224	157.026323373197
66923.25	100	182	5	1	33	2	12	12	0	0	0	stim013_stimuli_original_vehicles_planes_1.png	T	0	0	0	157.22632854199	157.426315912744
67023.25	100	183	5	1	33	3	1	13	0	0	0	stim002_stimuli_original_animals_birds_2.png	U	0	0	0	157.626316205133	157.82634819299
67123.25	100	184	5	1	33	4	8	10	1	0	0	stim009_stimuli_original_vehicles_boats_1.png	Q	0	0	0	158.026351898909	158.22635511728
67223.25	100	185	5	1	33	5	11	1	0	1	0	stim012_stimuli_original_vehicles_boats_4.png	B	0	0	0	158.426337124081	158.626374963205
67323.25	100	186	5	1	33	6	8	3	1	0	0	stim009_stimuli_original_vehicles_boats_1.png	D	0	0	0	158.826375987381	159.026349460939
67423.25	100	187	5	1	33	7	4	1	0	1	1	stim005_stimuli_original_animals_fish_1.png	B	0	0	0	159.2263546295	159.426355653675
67523.25	100	188	5	1	33	8	6	2	0	0	0	stim007_stimuli_original_animals_fish_3.png	C	0	0	0	159.626393736573	159.82636647881
67623.25	100	189	5	1	33	9	5	15	0	0	0	stim006_stimuli_original_animals_fish_2.png	Y	0	0	0	160.026412607403	160.226407536305
67723.25	100	190	5	1	33	10	8	0	0	0	0	stim009_stimuli_original_vehicles_boats_1.png	A	d	160.419010650599	1	160.426414899295	160.62641787366
67823.25	100	191	5	1	33	11	9	11	0	0	0	stim010_stimuli_original_vehicles_boats_2.png	R	0	0	0	160.826431819703	161.026403830387
67923.25	100	192	5	1	33	12	15	14	0	0	0	stim016_stimuli_original_vehicles_planes_4.png	V	0	0	0	161.226435818244	161.426686259219
68023.25	100	193	5	1	33	13	14	5	0	0	0	stim015_stimuli_original_vehicles_planes_3.png	F	0	0	0	161.626448593801	161.826451568166
68123.25	100	194	5	1	33	14	10	1	0	0	0	stim011_stimuli_original_vehicles_boats_3.png	B	0	0	0	162.026458687382	162.226442644838
68223.5	100	195	5	1	33	15	3	4	0	0	0	stim004_stimuli_original_animals_birds_4.png	E	0	0	0	162.426467562094	162.626455176622
68323.5	100	196	5	1	33	16	2	9	0	0	0	stim003_stimuli_original_animals_birds_3.png	L	0	0	0	162.826481800526	163.026482336922
68423.5	100	197	5	1	33	17	0	6	0	0	0	stim001_stimuli_original_animals_birds_1.png	G	0	0	0	163.226471901871	163.42649633158
68523.5	100	198	5	1	33	18	6	0	0	0	0	stim007_stimuli_original_animals_fish_3.png	A	0	0	0	163.626490041381	163.826498135924
68623.5	100	199	5	1	33	19	9	2	0	0	0	stim010_stimuli_original_vehicles_boats_2.png	C	0	0	0	164.026502085617	164.226505059982
68723.5	100	200	5	1	33	20	4	3	0	0	0	stim005_stimuli_original_animals_fish_1.png	D	0	0	0	164.426512910752	164.626514666015
68823.5	100	201	5	1	33	21	1	10	0	0	0	stim002_stimuli_original_animals_birds_2.png	Q	0	0	0	164.82652690541	165.026529636001
68923.5	100	202	5	1	33	22	5	14	0	0	0	stim006_stimuli_original_animals_fish_2.png	V	0	0	0	165.226533829467	165.426535828738
69023.5	100	203	5	1	33	23	14	15	0	0	0	stim015_stimuli_original_vehicles_planes_3.png	Y	0	0	0	165.626546117477	165.826549823396
69123.5	100	204	5	1	33	24	11	9	0	0	0	stim012_stimuli_original_vehicles_boats_4.png	L	0	0	0	166.026556942612	166.226563574281
69223.5	100	205	5	1	33	25	0	8	0	0	0	stim001_stimuli_original_animals_birds_1.png	K	0	0	0	166.42656435445	166.626568791922
69323.5	100	206	5	1	33	26	15	5	0	0	0	stim016_stimuli_original_vehicles_planes_4.png	F	0	0	0	166.826582737733	167.026578885503
69423.5	100	207	5	1	33	27	2	6	0	0	0	stim003_stimuli_original_animals_birds_3.png	G	0	0	0	167.226592099993	167.426589466864
69523.5	100	208	5	1	33	28	1	4	1	0	0	stim002_stimuli_original_animals_birds_2.png	E	0	0	0	167.626596098533	167.826605411945
69623.5	100	209	5	1	33	29	3	8	0	1	0	stim004_stimuli_original_animals_birds_4.png	K	0	0	0	168.026609605411	168.226615017978
69723.5	100	210	5	1	33	30	1	11	1	0	0	stim002_stimuli_original_animals_birds_2.png	R	0	0	0	168.426620186772	168.62662267359
69823.5	100	211	5	1	33	31	10	8	0	1	1	stim011_stimuli_original_vehicles_boats_3.png	K	0	0	0	168.826631255681	169.026633986505
69923.5	100	212	5	1	33	32	13	1	0	0	0	stim014_stimuli_original_vehicles_planes_2.png	B	d	169.418438673718	1	169.226673776051	169.426647981163
70023.5	100	213	5	1	33	33	12	12	0	0	0	stim013_stimuli_original_vehicles_planes_1.png	T	0	0	0	169.626643153606	169.826667339541
70123.5	100	214	5	1	33	34	8	7	0	0	0	stim009_stimuli_original_vehicles_boats_1.png	J	0	0	0	170.026671777014	170.226674020058
70223.5	100	215	5	1	33	35	7	13	0	0	0	stim008_stimuli_original_animals_fish_4.png	U	0	0	0	170.426681139274	170.626696060412
71302.5	100	216	6	0	10	0	14	15	0	0	0	stim015_stimuli_original_vehicles_planes_3.png	Y	0	0	0	174.743473709095	174.943465224467
71402.5	100	217	6	0	10	1	13	10	0	0	0	stim014_stimuli_original_vehicles_planes_2.png	Q	0	0	0	175.143470393261	175.343484095298
71502.75	100	218	6	0	10	2	0	8	0	0	0	stim001_stimuli_original_animals_birds_1.png	K	0	0	0	175.543486338342	175.743491019588
71602.75	100	219	6	0	10	3	4	1	0	0	0	stim005_stimuli_original_animals_fish_1.png	B	0	0	0	175.943492043531	176.143494774122
71702.75	100	220	6	0	10	4	11	7	0	0	0	stim012_stimuli_original_vehicles_boats_4.png	J	0	0	0	176.343503112439	176.543507793685
71802.75	100	221	6	0	10	5	9	13	0	0	0	stim010_stimuli_original_vehicles_boats_2.png	U	0	0	0	176.743516132003	176.943526664516
71902.75	100	222	6	0	10	6	15	0	0	0	0	stim016_stimuli_original_vehicles_planes_4.png	A	0	0	0	177.143525250256	177.343527005753
72002.75	100	223	6	0	10	7	10	14	1	0	0	stim011_stimuli_original_vehicles_boats_3.png	V	0	0	0	177.543535100296	177.743537099566
72102.75	100	224	6	0	10	8	8	6	0	0	0	stim009_stimuli_original_vehicles_boats_1.png	G	0	0	0	177.943549582502	178.143547680927
72202.75	100	225	6	0	10	9	10	5	1	0	1	stim011_stimuli_original_vehicles_boats_3.png	F	0	0	0	178.343557481887	178.543562163133
72302.75	100	226	6	0	10	10	1	3	0	0	0	stim002_stimuli_original_animals_birds_2.png	D	0	0	0	178.7435734272	178.943572256714
72402.75	100	227	6	0	10	11	12	14	0	1	0	stim013_stimuli_original_vehicles_planes_1.png	V	0	0	0	179.143579619937	179.343579181004
72502.75	100	228	6	0	10	12	2	12	0	0	0	stim003_stimuli_original_animals_birds_3.png	T	0	0	0	179.543593858369	179.743592931889
72602.75	100	229	6	0	10	13	3	14	0	1	0	stim004_stimuli_original_animals_birds_4.png	V	0	0	0	179.94360443973	180.1436005875
72702.75	100	230	6	0	10	14	10	9	0	0	0	stim011_stimuli_original_vehicles_boats_3.png	L	0	0	0	180.343610144919	180.54361287551
72802.75	100	231	6	0	10	15	6	11	0	0	0	stim007_stimuli_original_animals_fish_3.png	R	0	0	0	180.744002531748	180.943627113942
72902.75	100	232	6	0	10	16	5	4	0	0	0	stim006_stimuli_original_animals_fish_2.png	E	0	0	0	181.143635208486	181.343606487615
73002.75	100	233	6	0	10	17	7	2	0	0	0	stim008_stimuli_original_animals_fish_4.png	C	0	0	0	181.543614338385	181.743619263172
73102.75	100	234	6	0	10	18	2	7	0	0	0	stim003_stimuli_original_animals_birds_3.png	J	0	0	0	181.94362808927	182.143626187462
73202.75	100	235	6	0	10	19	4	5	0	0	0	stim005_stimuli_original_animals_fish_1.png	F	0	0	0	182.343637939077	182.543638231698
73302.75	100	236	6	0	10	20	11	6	0	0	0	stim012_stimuli_original_vehicles_boats_4.png	G	0	0	0	182.743683385197	182.943683190038
73402.75	100	237	6	0	10	21	9	10	0	0	0	stim010_stimuli_original_vehicles_boats_2.png	Q	0	0	0	183.14368933416	183.343690601876
73502.75	100	238	6	0	10	22	14	3	1	0	0	stim015_stimuli_original_vehicles_planes_3.png	D	0	0	0	183.543701865943	183.743701914791
73602.75	100	239	6	0	10	23	12	2	0	0	0	stim013_stimuli_original_vehicles_planes_1.png	C	0	0	0	183.943688553991	184.143715665443
73702.75	100	240	6	0	10	24	14	12	1	0	1	stim015_stimuli_original_vehicles_planes_3.png	T	0	0	0	184.343703523744	184.543724052608
73802.75	100	241	6	0	10	25	3	1	0	0	0	stim004_stimuli_original_animals_birds_4.png	B	0	0	0	184.743743362371	184.943734633969
73902.75	100	242	6	0	10	26	5	10	0	1	0	stim006_stimuli_original_animals_fish_2.png	Q	d	185.335506650619	1	185.143742972286	185.343743508682
74002.75	100	243	6	0	10	27	6	8	0	0	0	stim007_stimuli_original_animals_fish_3.png	K	0	0	0	185.543753065867	185.743757990887
74102.75	100	244	6	0	10	28	14	10	0	1	0	stim015_stimuli_original_vehicles_planes_3.png	Q	0	0	0	185.943747312063	186.144112343434
74202.75	100	245	6	0	10	29	0	15	0	0	0	stim001_stimuli_original_animals_birds_1.png	Y	0	0	0	186.343775691465	186.543759648688
74302.75	100	246	6	0	10	30	13	9	0	0	0	stim014_stimuli_original_vehicles_planes_2.png	L	0	0	0	186.743785053724	186.943791685393
74402.75	100	247	6	0	10	31	7	11	0	0	0	stim008_stimuli_original_animals_fish_4.png	R	0	0	0	187.143799779704	187.343785931356
74502.75	100	248	6	0	10	32	1	4	0	0	0	stim002_stimuli_original_animals_birds_2.png	E	0	0	0	187.543790124822	187.743813091889
74602.75	100	249	6	0	10	33	8	0	0	0	0	stim009_stimuli_original_vehicles_boats_1.png	A	0	0	0	187.943818016676	188.143822697923
74702.75	100	250	6	0	10	34	10	13	0	0	0	stim011_stimuli_original_vehicles_boats_3.png	U	0	0	0	188.343828598037	188.543830597308
74802.75	100	251	6	0	10	35	15	14	0	0	0	stim016_stimuli_original_vehicles_planes_4.png	V	0	0	0	188.743821625132	188.943843372865
75719.5	100	252	7	1	16	0	14	5	0	0	0	stim015_stimuli_original_vehicles_planes_3.png	F	0	0	0	192.410573625006	192.610598542495
75819.5	100	253	7	1	16	1	11	1	0	0	0	stim012_stimuli_original_vehicles_boats_4.png	B	0	0	0	192.810620046454	193.010601809481
75919.5	100	254	7	1	16	2	3	11	0	0	0	stim004_stimuli_original_animals_birds_4.png	R	0	0	0	193.210626726737	193.410627506906
76019.5	100	255	7	1	16	3	7	4	0	0	0	stim008_stimuli_original_animals_fish_4.png	E	0	0	0	193.61061487766	193.810628092149
76119.5	100	256	7	1	16	4	1	15	0	0	0	stim002_stimuli_original_animals_birds_2.png	Y	0	0	0	194.010635211365	194.211055587512
76219.5	100	257	7	1	16	5	3	6	1	0	0	stim004_stimuli_original_animals_birds_4.png	G	0	0	0	194.410653594648	194.610644866247
76319.5	100	258	7	1	16	6	10	2	0	0	0	stim011_stimuli_original_vehicles_boats_3.png	C	0	0	0	194.810666126432	195.010672514094
76419.5	100	259	7	1	16	7	3	14	1	0	0	stim004_stimuli_original_animals_birds_4.png	V	0	0	0	195.210661347723	195.410681388807
76519.5	100	260	7	1	16	8	8	0	0	1	0	stim009_stimuli_original_vehicles_boats_1.png	A	0	0	0	195.610687532928	195.810695627239
76619.5	100	261	7	1	16	9	12	10	0	0	0	stim013_stimuli_original_vehicles_planes_1.png	Q	0	0	0	196.010699576931	196.210705233505
76719.5	100	262	7	1	16	10	13	0	0	1	1	stim014_stimuli_original_vehicles_planes_2.png	A	0	0	0	196.410711864941	196.610698016593
76819.5	100	263	7	1	16	11	6	8	0	0	0	stim007_stimuli_original_animals_fish_3.png	K	d	197.002486124868	1	196.810720252106	197.010723714251
76919.5	100	264	7	1	16	12	4	7	0	0	0	stim005_stimuli_original_animals_fish_1.png	J	0	0	0	197.210729126818	197.410733564058
77019.5	100	265	7	1	16	13	9	0	0	0	0	stim010_stimuli_original_vehicles_boats_2.png	A	0	0	0	197.610742877703	197.810730979778
77119.5	100	266	7	1	16	14	5	3	0	0	0	stim006_stimuli_original_animals_fish_2.png	D	0	0	0	198.010762236081	198.21074814396
77219.5	100	267	7	1	16	15	2	12	0	0	0	stim003_stimuli_original_animals_birds_3.png	T	0	0	0	198.410763308872	198.61076701479
77319.5	100	268	7	1	16	16	0	9	0	0	0	stim001_stimuli_original_animals_birds_1.png	L	0	0	0	198.810773402452	199.01077881502
77419.5	100	269	7	1	16	17	15	13	0	0	0	stim016_stimuli_original_vehicles_planes_4.png	U	0	0	0	199.210784959141	199.410787445959
77519.5	100	270	7	1	16	18	13	15	0	0	0	stim014_stimuli_original_vehicles_planes_2.png	Y	0	0	0	199.610776279587	199.81079802732
77619.5	100	271	7	1	16	19	9	0	0	0	0	stim010_stimuli_original_vehicles_boats_2.png	A	0	0	0	200.010806365637	200.210792029509
77719.5	100	272	7	1	16	20	12	2	0	0	0	stim013_stimuli_original_vehicles_planes_1.png	C	0	0	0	200.410816459218	200.610820652917
77819.5	100	273	7	1	16	21	3	5	0	0	0	stim004_stimuli_original_animals_birds_4.png	F	0	0	0	200.810812412063	201.0108331847
77919.5	100	274	7	1	16	22	0	9	0	0	0	stim001_stimuli_original_animals_birds_1.png	L	0	0	0	201.210835671518	201.41082426114
78019.5	100	275	7	1	16	23	7	4	0	0	0	stim008_stimuli_original_animals_fish_4.png	E	0	0	0	201.6108469842	201.810850446345
78119.5	100	276	7	1	16	24	8	6	0	0	0	stim009_stimuli_original_vehicles_boats_1.png	G	0	0	0	202.01087463228	202.210864684777
78219.5	100	277	7	1	16	25	0	13	1	0	0	stim001_stimuli_original_animals_birds_1.png	U	0	0	0	202.410869853571	202.610855517443
78319.5	100	278	7	1	16	26	10	12	0	0	0	stim011_stimuli_original_vehicles_boats_3.png	T	0	0	0	202.810865074862	203.010866830358
78419.5	100	279	7	1	16	27	0	8	1	0	0	stim001_stimuli_original_animals_birds_1.png	K	0	0	0	203.210891016293	203.410919346847
78519.5	100	280	7	1	16	28	14	3	0	1	0	stim015_stimuli_original_vehicles_planes_3.png	D	0	0	0	203.610902328975	203.810904815793
78619.5	100	281	7	1	16	29	2	10	0	0	0	stim003_stimuli_original_animals_birds_3.png	Q	0	0	0	204.010912910337	204.210914421827
78719.5	100	282	7	1	16	30	6	3	0	1	1	stim007_stimuli_original_animals_fish_3.png	D	0	0	0	204.410929342965	204.610910618445
78819.5	100	283	7	1	16	31	15	1	0	0	0	stim016_stimuli_original_vehicles_planes_4.png	B	d	205.002892798977	1	204.811127169989	205.010941679822
78919.5	100	284	7	1	16	32	4	7	0	0	0	stim005_stimuli_original_animals_fish_1.png	J	0	0	0	205.210951237241	205.410946409684
79019.5	100	285	7	1	16	33	11	3	0	0	0	stim012_stimuli_original_vehicles_boats_4.png	D	0	0	0	205.610959867947	205.810938705225
79119.5	100	286	7	1	16	34	1	11	0	0	0	stim002_stimuli_original_animals_birds_2.png	R	0	0	0	206.010966060683	206.210969279055
79219.5	100	287	7	1	16	35	5	14	0	0	0	stim006_stimuli_original_animals_fish_2.png	V	0	0	0	206.410979080247	206.610983029939
80244.5	100	288	8	0	17	0	12	4	0	0	0	stim013_stimuli_original_vehicles_planes_1.png	E	0	0	0	210.511086502578	210.711083138129
80344.5	100	289	8	0	17	1	7	9	0	0	0	stim008_stimuli_original_animals_fish_4.png	L	0	0	0	210.911096352618	211.111096645007
80444.5	100	290	8	0	17	2	4	3	0	0	0	stim005_stimuli_original_animals_fish_1.png	D	0	0	0	211.311104495777	211.511107957922
80544.5	100	291	8	0	17	3	3	7	0	0	0	stim004_stimuli_original_animals_birds_4.png	J	0	0	0	211.71111702756	211.911118051503
80644.5	100	292	8	0	17	4	11	1	0	0	0	stim012_stimuli_original_vehicles_boats_4.png	B	0	0	0	212.111129071796	212.311131802388
80744.5	100	293	8	0	17	5	13	5	0	0	0	stim014_stimuli_original_vehicles_planes_2.png	F	0	0	0	212.511134045431	212.711145065725
80844.5	100	294	8	0	17	6	4	10	1	0	0	stim005_stimuli_original_animals_fish_1.png	Q	0	0	0	212.911150722066	213.11115589086
80944.5	100	295	8	0	17	7	10	2	0	1	0	stim011_stimuli_original_vehicles_boats_3.png	C	0	0	0	213.311577486107	213.511165984441
81044.5	100	296	8	0	17	8	4	12	1	0	1	stim005_stimuli_original_animals_fish_1.png	T	0	0	0	213.711171153234	213.911169982981
81144.5	100	297	8	0	17	9	0	2	0	1	0	stim001_stimuli_original_animals_birds_1.png	C	0	0	0	214.111180759268	214.311182514764
81244.5	100	298	8	0	17	10	2	14	0	0	0	stim003_stimuli_original_animals_birds_3.png	V	f	214.702954531414	1	214.511188171105	214.711197972298
81344.5	100	299	8	0	17	11	5	6	0	0	0	stim006_stimuli_original_animals_fish_2.png	G	0	0	0	214.911191682098	215.111215867801
81444.5	100	300	8	0	17	12	15	2	0	0	0	stim016_stimuli_original_vehicles_planes_4.png	C	0	0	0	215.311223962344	215.511223523412
81544.5	100	301	8	0	17	13	8	15	0	0	0	stim009_stimuli_original_vehicles_boats_1.png	Y	0	0	0	215.711230155081	215.911238980945
81644.5	100	302	8	0	17	14	1	13	0	0	0	stim002_stimuli_original_animals_birds_2.png	U	0	0	0	216.11124536884	216.311248343205
81744.5	100	303	8	0	17	15	9	0	0	0	0	stim010_stimuli_original_vehicles_boats_2.png	A	0	0	0	216.511253755772	216.711255023722
81844.5	100	304	8	0	17	16	14	11	0	0	0	stim015_stimuli_original_vehicles_planes_3.png	R	0	0	0	216.91124629532	217.111264142208
81944.5	100	305	8	0	17	17	6	8	0	0	0	stim007_stimuli_original_animals_fish_3.png	K	0	0	0	217.311290034791	217.51125180535
82044.5	100	306	8	0	17	18	8	6	0	0	0	stim009_stimuli_original_vehicles_boats_1.png	G	0	0	0	217.711283549434	217.911286767572
82144.5	100	307	8	0	17	19	11	14	0	0	0	stim012_stimuli_original_vehicles_boats_4.png	V	0	0	0	218.111297544092	218.311297348933
82244.5	100	308	8	0	17	20	0	9	0	0	0	stim001_stimuli_original_animals_birds_1.png	L	0	0	0	218.511306662578	218.711542231264
82344.5	100	309	8	0	17	21	13	1	0	0	0	stim014_stimuli_original_vehicles_planes_2.png	B	0	0	0	218.911293838173	219.11132533825
82444.5	100	310	8	0	17	22	15	8	0	0	0	stim016_stimuli_original_vehicles_planes_4.png	K	0	0	0	219.311327093747	219.511323973071
82544.5	100	311	8	0	17	23	2	15	0	0	0	stim003_stimuli_original_animals_birds_3.png	Y	0	0	0	219.711329873186	219.911337967729
82644.5	100	312	8	0	17	24	6	5	0	0	0	stim007_stimuli_original_animals_fish_3.png	F	0	0	0	220.111328020226	220.311346842442
82744.5	100	313	8	0	17	25	14	2	0	0	0	stim015_stimuli_original_vehicles_planes_3.png	C	0	0	0	220.511330555892	220.711328654084
82844.5	100	314	8	0	17	26	2	0	1	0	0	stim003_stimuli_original_animals_birds_3.png	A	0	0	0	220.91133869905	221.111345086945
82944.5	100	315	8	0	17	27	12	4	0	1	0	stim013_stimuli_original_vehicles_planes_1.png	E	0	0	0	221.311379025225	221.511378342519
83044.5	100	316	8	0	17	28	2	10	1	0	1	stim003_stimuli_original_animals_birds_3.png	Q	0	0	0	221.711384974187	221.911388680106
83144.5	100	317	8	0	17	29	10	4	0	1	0	stim011_stimuli_original_vehicles_boats_3.png	E	0	0	0	222.111398968846	222.311400968116
83244.5	100	318	8	0	17	30	5	13	0	0	0	stim006_stimuli_original_animals_fish_2.png	U	0	0	0	222.511407843558	222.711393994978
83344.5	100	319	8	0	17	31	1	11	0	0	0	stim002_stimuli_original_animals_birds_2.png	R	d	223.103185516549	1	222.911420619115	223.111404576339
83444.5	100	320	8	0	17	32	7	3	0	0	0	stim008_stimuli_original_animals_fish_4.png	D	0	0	0	223.31143095647	223.511431249091
83544.5	100	321	8	0	17	33	3	4	0	0	0	stim004_stimuli_original_animals_birds_4.png	E	0	0	0	223.711447389331	223.911427201936
83644.5	100	322	8	0	17	34	9	7	0	0	0	stim010_stimuli_original_vehicles_boats_2.png	J	0	0	0	224.111443098402	224.311433150899
83744.5	100	323	8	0	17	35	4	12	0	0	0	stim005_stimuli_original_animals_fish_1.png	T	0	0	0	224.511460993905	224.711446170229
84711.25	100	324	9	1	35	0	12	15	0	0	0	stim013_stimuli_original_vehicles_planes_1.png	Y	0	0	0	228.37823157222	228.57823600946
84811.25	100	325	9	1	35	1	2	2	0	0	0	stim003_stimuli_original_animals_birds_3.png	C	0	0	0	228.778241422027	228.978245859267
84911.25	100	326	9	1	35	2	8	1	0	0	0	stim009_stimuli_original_vehicles_boats_1.png	B	0	0	0	229.178235180443	229.378257172182
85011.25	100	327	9	1	35	3	0	11	0	0	0	stim001_stimuli_original_animals_birds_1.png	R	0	0	0	229.578261853196	229.778267753543
85111.25	100	328	9	1	35	4	5	9	0	0	0	stim006_stimuli_original_animals_fish_2.png	L	0	0	0	229.978260488017	230.178275409155
85211.25	100	329	9	1	35	5	7	0	0	0	0	stim008_stimuli_original_animals_fish_4.png	A	0	0	0	230.378279602621	230.578279407462
85311.25	100	330	9	1	35	6	3	13	0	0	0	stim004_stimuli_original_animals_birds_4.png	U	0	0	0	230.778298960999	230.978304373566
85411.25	100	331	9	1	35	7	4	3	0	1	0	stim005_stimuli_original_animals_fish_1.png	D	0	0	0	231.178306860616	231.378310322529
85511.25	100	332	9	1	35	8	1	6	0	0	0	stim002_stimuli_original_animals_birds_2.png	G	0	0	0	231.578286721837	231.778289452428
85611.25	100	333	9	1	35	9	10	3	0	1	1	stim011_stimuli_original_vehicles_boats_3.png	D	0	0	0	231.97829632787	232.178296132945
85711.25	100	334	9	1	35	10	4	12	1	0	0	stim005_stimuli_original_animals_fish_1.png	T	d	232.581445273012	1	232.378343724413	232.578326950315
85811.25	100	335	9	1	35	11	13	14	0	0	0	stim014_stimuli_original_vehicles_planes_2.png	V	0	0	0	232.778347722953	232.97832826688
85911.25	100	336	9	1	35	12	4	5	1	0	0	stim005_stimuli_original_animals_fish_1.png	F	0	0	0	233.178330022376	233.378330071224
86011.25	100	337	9	1	35	13	14	8	0	0	0	stim015_stimuli_original_vehicles_planes_3.png	K	0	0	0	233.578339140862	233.778372347821
86111.25	100	338	9	1	35	14	15	10	0	0	0	stim016_stimuli_original_vehicles_planes_4.png	Q	0	0	0	233.978374103084	234.178375858581
86211.25	100	339	9	1	35	15	9	7	0	0	0	stim010_stimuli_original_vehicles_boats_2.png	J	0	0	0	234.378388097743	234.578384245513
86311.25	100	340	9	1	35	16	6	4	0	0	0	stim007_stimuli_original_animals_fish_3.png	E	0	0	0	234.778402823955	234.978395802202
86411.25	100	341	9	1	35	17	11	3	0	0	0	stim012_stimuli_original_vehicles_boats_4.png	D	0	0	0	235.178404628066	235.378405895783
86511.25	100	342	9	1	35	18	3	11	0	0	0	stim004_stimuli_original_animals_birds_4.png	R	0	0	0	235.578414477874	235.77841915912
86611.25	100	343	9	1	35	19	4	6	0	0	0	stim005_stimuli_original_animals_fish_1.png	G	0	0	0	235.978424815461	236.178442418575
86711.25	100	344	9	1	35	20	7	9	0	0	0	stim008_stimuli_original_animals_fish_4.png	L	0	0	0	236.378441979643	236.578445929335
86811.25	100	345	9	1	35	21	10	15	0	0	0	stim011_stimuli_original_vehicles_boats_3.png	Y	0	0	0	236.778447928606	236.978460411774
86911.25	100	346	9	1	35	22	8	14	0	0	0	stim009_stimuli_original_vehicles_boats_1.png	V	0	0	0	237.17847045674	237.378452463541
87011.5	100	347	9	1	35	23	5	4	0	1	0	stim006_stimuli_original_animals_fish_2.png	E	0	0	0	237.578745083651	237.778484500013
87111.25	100	348	9	1	35	24	14	13	0	0	0	stim015_stimuli_original_vehicles_planes_3.png	U	0	0	0	237.978490887908	238.17849069275
87211.25	100	349	9	1	35	25	12	4	0	1	1	stim013_stimuli_original_vehicles_planes_1.png	E	0	0	0	238.378480989253	238.578499567462
87311.25	100	350	9	1	35	26	3	10	1	0	0	stim004_stimuli_original_animals_birds_4.png	Q	d	238.778678816278	1	238.778511806624	238.978511611698
87411.25	100	351	9	1	35	27	6	1	0	0	0	stim007_stimuli_original_animals_fish_3.png	B	0	0	0	239.178524582414	239.37850805209
87511.25	100	352	9	1	35	28	3	4	1	0	0	stim004_stimuli_original_animals_birds_4.png	E	0	0	0	239.57853077515	239.77850254206
87611.25	100	353	9	1	35	29	13	3	0	0	0	stim014_stimuli_original_vehicles_planes_2.png	D	0	0	0	239.978544038255	240.17851799936
87711.25	100	354	9	1	35	30	0	7	0	0	0	stim001_stimuli_original_animals_birds_1.png	J	0	0	0	240.378519754857	240.578524436103
87811.25	100	355	9	1	35	31	9	5	0	0	0	stim010_stimuli_original_vehicles_boats_2.png	F	0	0	0	240.778538625687	240.978540381184
87911.25	100	356	9	1	35	32	11	0	0	0	0	stim012_stimuli_original_vehicles_boats_4.png	A	0	0	0	241.178596749902	241.378574612085
88011.25	100	357	9	1	35	33	1	8	0	0	0	stim002_stimuli_original_animals_birds_2.png	K	0	0	0	241.578589776997	241.778584705666
88111.25	100	358	9	1	35	34	2	2	0	0	0	stim003_stimuli_original_animals_birds_3.png	C	0	0	0	241.978595725959	242.178600163199
88211.25	100	359	9	1	35	35	15	12	0	0	0	stim016_stimuli_original_vehicles_planes_4.png	T	0	0	0	242.378588509047	242.578593921848
89640.5	100	360	10	0	36	0	4	12	0	0	0	stim005_stimuli_original_animals_fish_1.png	T	0	0	0	248.095416528871	248.295416821493
89740.5	100	361	10	0	36	1	11	8	0	0	0	stim012_stimuli_original_vehicles_boats_4.png	K	0	0	0	248.495425403584	248.695445932215
89840.5	100	362	10	0	36	2	3	13	0	0	0	stim004_stimuli_original_animals_birds_4.png	U	0	0	0	248.895454514539	249.095439690864
89940.5	100	363	10	0	36	3	10	6	0	0	0	stim011_stimuli_original_vehicles_boats_3.png	G	0	0	0	249.295461438596	249.495469776914
90040.5	100	364	10	0	36	4	15	0	0	0	0	stim016_stimuli_original_vehicles_planes_4.png	A	0	0	0	249.695477383677	249.895446224837
90140.5	100	365	10	0	36	5	2	10	0	0	0	stim003_stimuli_original_animals_birds_3.png	Q	0	0	0	250.095468216576	250.295475579565
90240.5	100	366	10	0	36	6	1	7	0	0	0	stim002_stimuli_original_animals_birds_2.png	J	0	0	0	250.495499033947	250.695497863693
90340.5	100	367	10	0	36	7	8	14	0	1	0	stim009_stimuli_original_vehicles_boats_1.png	V	0	0	0	250.895488160197	251.095492597437
90440.5	100	368	10	0	36	8	13	15	0	0	0	stim014_stimuli_original_vehicles_planes_2.png	Y	0	0	0	251.295516783372	251.495501959696
90540.5	100	369	10	0	36	9	2	14	1	1	0	stim003_stimuli_original_animals_birds_3.png	V	0	0	0	251.695528583834	251.895530339098
90640.5	100	370	10	0	36	10	5	1	0	0	0	stim006_stimuli_original_animals_fish_2.png	B	0	0	0	252.095536726993	252.29552677949
90740.5	100	371	10	0	36	11	2	9	1	0	1	stim003_stimuli_original_animals_birds_3.png	L	0	0	0	252.495545845479	252.695549795171
90840.5	100	372	10	0	36	12	14	2	0	0	0	stim015_stimuli_original_vehicles_planes_3.png	C	0	0	0	252.895562522113	253.095821252558
90940.5	100	373	10	0	36	13	7	5	0	0	0	stim008_stimuli_original_animals_fish_4.png	F	0	0	0	253.295587731991	253.495555841597
91040.5	100	374	10	0	36	14	9	14	0	0	0	stim010_stimuli_original_vehicles_boats_2.png	V	0	0	0	253.695580758853	253.895587146748
91140.5	100	375	10	0	36	15	0	4	0	0	0	stim001_stimuli_original_animals_birds_1.png	E	0	0	0	254.095585488947	254.295571640367
91240.5	100	376	10	0	36	16	6	3	0	0	0	stim007_stimuli_original_animals_fish_3.png	D	0	0	0	254.495595094981	254.695601238869
91340.5	100	377	10	0	36	17	12	11	0	0	0	stim013_stimuli_original_vehicles_planes_1.png	R	0	0	0	254.895610552514	255.095610601129
91440.5	100	378	10	0	36	18	11	12	0	0	0	stim012_stimuli_original_vehicles_boats_4.png	T	0	0	0	255.295600897633	255.495619719615
91540.5	100	379	10	0	36	19	3	6	0	0	0	stim004_stimuli_original_animals_birds_4.png	G	0	0	0	255.695630739909	255.895631763851
91640.5	100	380	10	0	36	20	4	0	0	0	0	stim005_stimuli_original_animals_fish_1.png	A	0	0	0	256.095628643176	256.295640882337
91740.5	100	381	10	0	36	21	14	9	0	0	0	stim015_stimuli_original_vehicles_planes_3.png	L	0	0	0	256.495647514006	256.695653657895
91840.5	100	382	10	0	36	22	5	7	0	0	0	stim006_stimuli_original_animals_fish_2.png	J	0	0	0	256.89567540586	257.095672772732
91940.5	100	383	10	0	36	23	2	14	0	0	0	stim003_stimuli_original_animals_birds_3.png	V	0	0	0	257.295675015775	257.495657753898
92040.5	100	384	10	0	36	24	9	2	0	1	0	stim010_stimuli_original_vehicles_boats_2.png	C	0	0	0	257.695684378035	257.895683207782
92140.5	100	385	10	0	36	25	1	5	0	0	0	stim002_stimuli_original_animals_birds_2.png	F	0	0	0	258.095694959396	258.295695983339
92240.5	100	386	10	0	36	26	14	2	1	1	0	stim015_stimuli_original_vehicles_planes_3.png	C	0	0	0	258.49568335386	258.695712415967
92340.5	100	387	10	0	36	27	15	13	0	0	0	stim016_stimuli_original_vehicles_planes_4.png	U	0	0	0	258.895713683916	259.09571543918
92440.5	100	388	10	0	36	28	14	8	1	0	1	stim015_stimuli_original_vehicles_planes_3.png	K	0	0	0	259.295711099403	259.495711879572
92540.5	100	389	10	0	36	29	7	1	0	0	0	stim008_stimuli_original_animals_fish_4.png	B	0	0	0	259.695721924538	259.895746110473
92640.5	100	390	10	0	36	30	10	2	0	0	0	stim011_stimuli_original_vehicles_boats_3.png	C	0	0	0	260.095744940219	260.295744989067
92740.75	100	391	10	0	36	31	0	15	0	0	0	stim001_stimuli_original_animals_birds_1.png	Y	0	0	0	260.495754302479	260.695763616124
92840.75	100	392	10	0	36	32	6	10	0	0	0	stim007_stimuli_original_animals_fish_3.png	Q	0	0	0	260.895779756131	261.095772490604
92940.75	100	393	10	0	36	33	13	3	0	0	0	stim014_stimuli_original_vehicles_planes_2.png	D	0	0	0	261.295781072695	261.495771856746
93040.75	100	394	10	0	36	34	8	11	0	0	0	stim009_stimuli_original_vehicles_boats_1.png	R	0	0	0	261.695771417813	261.895789264701
93140.75	100	395	10	0	36	35	12	4	0	0	0	stim013_stimuli_original_vehicles_planes_1.png	E	0	0	0	262.095800528768	262.295810817508
95303.25	100	396	11	1	1	0	8	8	0	0	0	stim009_stimuli_original_vehicles_boats_1.png	K	0	0	0	270.746002988191	270.946004499681
95403.25	100	397	11	1	1	1	11	2	0	0	0	stim012_stimuli_original_vehicles_boats_4.png	C	0	0	0	271.146014300874	271.346014593495
95503.25	100	398	11	1	1	2	5	9	0	0	0	stim006_stimuli_original_animals_fish_2.png	L	0	0	0	271.546030733734	271.746032976778
95603.25	100	399	11	1	1	3	15	0	0	0	0	stim016_stimuli_original_vehicles_planes_4.png	A	0	0	0	271.946039608214	272.146039657062
95703.25	100	400	11	1	1	4	6	11	0	0	0	stim007_stimuli_original_animals_fish_3.png	R	0	0	0	272.346050189575	272.546045606025
95803.25	100	401	11	1	1	5	14	5	0	0	0	stim015_stimuli_original_vehicles_planes_3.png	F	0	0	0	272.746083201375	272.946087638848
95903.25	100	402	11	1	1	6	2	4	0	1	0	stim003_stimuli_original_animals_birds_3.png	E	0	0	0	273.146095489385	273.346101633506
96003.25	100	403	11	1	1	7	7	6	0	0	0	stim008_stimuli_original_animals_fish_4.png	G	0	0	0	273.546105826972	273.746111483313
96103.25	100	404	11	1	1	8	3	4	0	1	1	stim004_stimuli_original_animals_birds_4.png	E	0	0	0	273.946100072935	274.146114994073
96203.25	100	405	11	1	1	9	0	15	0	0	0	stim001_stimuli_original_animals_birds_1.png	Y	0	0	0	274.346119919093	274.546123381238
96303.25	100	406	11	1	1	10	11	10	1	0	0	stim012_stimuli_original_vehicles_boats_4.png	Q	s	274.7494648383	1	274.746159513714	274.946138838772
96403.25	100	407	11	1	1	11	1	12	0	0	0	stim002_stimuli_original_animals_birds_2.png	T	0	0	0	275.146148152184	275.346149420133
96503.25	100	408	11	1	1	12	11	1	1	0	0	stim012_stimuli_original_vehicles_boats_4.png	B	0	0	0	275.5461548327	275.746160976589
96603.25	100	409	11	1	1	13	13	4	0	0	0	stim014_stimuli_original_vehicles_planes_2.png	E	0	0	0	275.946165170055	276.146167900879
96703.25	100	410	11	1	1	14	4	14	0	0	0	stim005_stimuli_original_animals_fish_1.png	V	0	0	0	276.34618842951	276.54618384596
96803.25	100	411	11	1	1	15	10	3	0	0	0	stim011_stimuli_original_vehicles_boats_3.png	D	0	0	0	276.746454766952	276.946199547267
96903.25	100	412	11	1	1	16	9	13	0	0	0	stim010_stimuli_original_vehicles_boats_2.png	U	0	0	0	277.146187161794	277.346203789581
97003.25	100	413	11	1	1	17	12	7	0	0	0	stim013_stimuli_original_vehicles_planes_1.png	J	0	0	0	277.546213590773	277.746215346036
97103.25	100	414	11	1	1	18	7	12	0	0	0	stim008_stimuli_original_animals_fish_4.png	T	0	0	0	277.946226853877	278.146213980857
97203.25	100	415	11	1	1	19	13	9	0	0	0	stim014_stimuli_original_vehicles_planes_2.png	L	0	0	0	278.346236703917	278.546239678282
97303.25	100	416	11	1	1	20	3	10	0	0	0	stim004_stimuli_original_animals_birds_4.png	Q	0	0	0	278.746244847076	278.946247333894
97403.25	100	417	11	1	1	21	14	4	0	0	0	stim015_stimuli_original_vehicles_planes_3.png	E	0	0	0	279.14625494089	279.346261572326
97503.25	100	418	11	1	1	22	4	13	0	0	0	stim005_stimuli_original_animals_fish_1.png	U	0	0	0	279.5462496744	279.746281906031
97603.25	100	419	11	1	1	23	1	11	0	1	0	stim002_stimuli_original_animals_birds_2.png	R	0	0	0	279.94628024823	280.146267862758
97703.25	100	420	11	1	1	24	12	1	0	0	0	stim013_stimuli_original_vehicles_planes_1.png	B	0	0	0	280.34628668474	280.546293803956
97803.25	100	421	11	1	1	25	10	11	0	1	1	stim011_stimuli_original_vehicles_boats_3.png	R	0	0	0	280.746310431743	280.946285855724
97903.25	100	422	11	1	1	26	15	0	0	0	0	stim016_stimuli_original_vehicles_planes_4.png	A	0	0	0	281.146309797885	281.346283027669
98003.25	100	423	11	1	1	27	4	3	1	0	0	stim005_stimuli_original_animals_fish_1.png	D	0	0	0	281.546294779284	281.746340176556
98103.25	100	424	11	1	1	28	6	7	0	0	0	stim007_stimuli_original_animals_fish_3.png	J	0	0	0	281.946331204381	282.146765477723
98203.25	100	425	11	1	1	29	4	2	1	0	0	stim005_stimuli_original_animals_fish_1.png	C	0	0	0	282.346345930593	282.546343785012
98303.25	100	426	11	1	1	30	5	14	0	0	0	stim006_stimuli_original_animals_fish_2.png	V	0	0	0	282.74635821837	282.946331448155
98403.25	100	427	11	1	1	31	11	6	0	0	0	stim012_stimuli_original_vehicles_boats_4.png	G	0	0	0	283.146351245465	283.346368361032
98503.25	100	428	11	1	1	32	0	15	0	0	0	stim001_stimuli_original_animals_birds_1.png	Y	0	0	0	283.546344028786	283.746346759377
98603.25	100	429	11	1	1	33	9	5	0	0	0	stim010_stimuli_original_vehicles_boats_2.png	F	0	0	0	283.946352659725	284.146355146542
98703.25	100	430	11	1	1	34	2	11	0	0	0	stim003_stimuli_original_animals_birds_3.png	R	0	0	0	284.346363240853	284.546369872522
98803.25	100	431	11	1	1	35	8	8	0	0	0	stim009_stimuli_original_vehicles_boats_1.png	K	0	0	0	284.746409906074	284.946395082399
100157.5	100	432	12	0	40	0	4	2	0	0	0	stim005_stimuli_original_animals_fish_1.png	C	0	0	0	290.163221151801	290.363219249994
100257.5	100	433	12	0	40	1	12	0	0	0	0	stim013_stimuli_original_vehicles_planes_1.png	A	0	0	0	290.563210765366	290.763236901723
100357.5	100	434	12	0	40	2	3	14	0	0	0	stim004_stimuli_original_animals_birds_4.png	V	0	0	0	290.963226954453	291.163241631817
100457.5	100	435	12	0	40	3	8	11	0	0	0	stim009_stimuli_original_vehicles_boats_1.png	R	0	0	0	291.363251189003	291.563257820671
100557.5	100	436	12	0	40	4	5	7	0	0	0	stim006_stimuli_original_animals_fish_2.png	J	0	0	0	291.763263233239	291.963700919878
100657.5	100	437	12	0	40	5	7	2	0	1	0	stim008_stimuli_original_animals_fish_4.png	C	0	0	0	292.163271132624	292.363259478472
100757.5	100	438	12	0	40	6	1	6	0	0	0	stim002_stimuli_original_animals_birds_2.png	G	0	0	0	292.563263915945	292.763287858106
100857.5	100	439	12	0	40	7	11	2	0	1	0	stim012_stimuli_original_vehicles_boats_4.png	C	0	0	0	292.963291563792	293.163265281357
100957.5	100	440	12	0	40	8	13	15	0	0	0	stim014_stimuli_original_vehicles_planes_2.png	Y	0	0	0	293.363279470941	293.563310483471
101057.5	100	441	12	0	40	9	1	12	1	0	0	stim002_stimuli_original_animals_birds_2.png	T	0	0	0	293.763314676937	293.963287906721
101157.5	100	442	12	0	40	10	15	9	0	0	0	stim016_stimuli_original_vehicles_planes_4.png	L	0	0	0	294.163311361335	294.363313848153
101257.5	100	443	12	0	40	11	1	3	1	0	1	stim002_stimuli_original_animals_birds_2.png	D	0	0	0	294.563352418831	294.763346372172
101357.5	100	444	12	0	40	12	10	10	0	0	0	stim011_stimuli_original_vehicles_boats_3.png	Q	0	0	0	294.963341301074	295.16333306022
101457.5	100	445	12	0	40	13	9	13	0	0	0	stim010_stimuli_original_vehicles_boats_2.png	U	d	295.355940806912	1	295.363342130091	295.563344616909
101557.5	100	446	12	0	40	14	0	4	0	0	0	stim001_stimuli_original_animals_birds_1.png	E	0	0	0	295.763373191236	295.963389331475
101657.5	100	447	12	0	40	15	2	1	0	0	0	stim003_stimuli_original_animals_birds_3.png	B	0	0	0	296.163362317486	296.36337943282
101757.5	100	448	12	0	40	16	14	5	0	0	0	stim015_stimuli_original_vehicles_planes_3.png	F	0	0	0	296.563389965333	296.763396597002
101857.5	100	449	12	0	40	17	6	8	0	0	0	stim007_stimuli_original_animals_fish_3.png	K	0	0	0	296.963402253343	297.163408153458
101957.5	100	450	12	0	40	18	8	6	0	0	0	stim009_stimuli_original_vehicles_boats_1.png	G	0	0	0	297.363401375711	297.56341410242
102057.5	100	451	12	0	40	19	5	14	0	0	0	stim006_stimuli_original_animals_fish_2.png	V	0	0	0	297.763422928518	297.963425415335
102157.5	100	452	12	0	40	20	1	2	0	0	0	stim002_stimuli_original_animals_birds_2.png	C	0	0	0	298.163406203035	298.36341551668
102257.5	100	453	12	0	40	21	4	0	0	0	0	stim005_stimuli_original_animals_fish_1.png	A	0	0	0	298.563422635896	298.763436094159
102357.5	100	454	12	0	40	22	13	9	0	0	0	stim014_stimuli_original_vehicles_planes_2.png	L	0	0	0	298.963453453267	299.163455696311
102457.5	100	455	12	0	40	23	10	10	0	0	0	stim011_stimuli_original_vehicles_boats_3.png	Q	0	0	0	299.363484758418	299.563464083476
102557.5	100	456	12	0	40	24	3	1	0	1	0	stim004_stimuli_original_animals_birds_4.png	B	0	0	0	299.763478517067	299.963474664837
102657.5	100	457	12	0	40	25	9	15	0	0	0	stim010_stimuli_original_vehicles_boats_2.png	Y	0	0	0	300.163473006804	300.363485489972
102757.5	100	458	12	0	40	26	12	1	0	1	0	stim013_stimuli_original_vehicles_planes_1.png	B	0	0	0	300.563496022485	300.763502654154
102857.5	100	459	12	0	40	27	15	13	0	0	0	stim016_stimuli_original_vehicles_planes_4.png	U	0	0	0	300.963509529596	301.163498850772
102957.5	100	460	12	0	40	28	2	11	1	0	0	stim003_stimuli_original_animals_birds_3.png	R	0	0	0	301.36350133759	301.563500654884
103057.5	100	461	12	0	40	29	6	1	0	0	0	stim007_stimuli_original_animals_fish_3.png	B	0	0	0	301.763510943623	301.963530740933
103157.5	100	462	12	0	40	30	2	7	1	0	1	stim003_stimuli_original_animals_birds_3.png	J	0	0	0	302.163548831595	302.363524011802
103257.75	100	463	12	0	40	31	7	5	0	0	0	stim008_stimuli_original_animals_fish_4.png	F	d	302.755714649335	1	302.56394316908	302.763558486477
103357.5	100	464	12	0	40	32	11	8	0	0	0	stim012_stimuli_original_vehicles_boats_4.png	K	0	0	0	302.963565605693	303.163562728791
103457.5	100	465	12	0	40	33	14	3	0	0	0	stim015_stimuli_original_vehicles_planes_3.png	D	0	0	0	303.363557169912	303.563581355847
103557.5	100	466	12	0	40	34	0	12	0	0	0	stim001_stimuli_original_animals_birds_1.png	T	0	0	0	303.763580429368	303.963586329482
103657.5	100	467	12	0	40	35	2	4	0	0	0	stim003_stimuli_original_animals_birds_3.png	E	0	0	0	304.163595643127	304.363579112804
104474.25	100	468	13	1	15	0	14	6	0	0	0	stim015_stimuli_original_vehicles_planes_3.png	G	0	0	0	307.430357541656	307.63035100745
104574.25	100	469	13	1	15	1	4	12	0	0	0	stim005_stimuli_original_animals_fish_1.png	T	0	0	0	307.830359101994	308.030364027014
104674.25	100	470	13	1	15	2	5	15	0	0	0	stim006_stimuli_original_animals_fish_2.png	Y	0	0	0	308.230369439581	308.4303731455
104774.25	100	471	13	1	15	3	7	11	0	0	0	stim008_stimuli_original_animals_fish_4.png	R	0	0	0	308.630378314294	308.830384701956
104874.25	100	472	13	1	15	4	10	8	1	0	0	stim011_stimuli_original_vehicles_boats_3.png	K	0	0	0	309.030378655531	309.230395527091
104974.25	100	473	13	1	15	5	8	2	0	0	0	stim009_stimuli_original_vehicles_boats_1.png	C	0	0	0	309.430403621634	309.630411716178
105074.25	100	474	13	1	15	6	10	5	1	0	0	stim011_stimuli_original_vehicles_boats_3.png	F	0	0	0	309.830380801111	310.030419859337
105174.25	100	475	13	1	15	7	13	4	0	0	0	stim014_stimuli_original_vehicles_planes_2.png	E	0	0	0	310.230858521303	310.430437511066
105274.25	100	476	13	1	15	8	3	0	0	1	0	stim004_stimuli_original_animals_birds_4.png	A	0	0	0	310.630434877938	310.830419810489
105374.25	100	477	13	1	15	9	2	9	0	0	0	stim003_stimuli_original_animals_birds_3.png	L	0	0	0	311.03044375265	311.230447946116
105474.25	100	478	13	1	15	10	12	0	0	1	1	stim013_stimuli_original_vehicles_planes_1.png	A	0	0	0	311.43045604066	311.630459502805
105574.25	100	479	13	1	15	11	11	13	0	0	0	stim012_stimuli_original_vehicles_boats_4.png	U	d	312.02220348129	1	311.830439559184	312.030440583127
105674.25	100	480	13	1	15	12	1	1	0	0	0	stim002_stimuli_original_animals_birds_2.png	B	0	0	0	312.230446239468	312.430483103497
105774.25	100	481	13	1	15	13	10	0	0	0	0	stim011_stimuli_original_vehicles_boats_3.png	A	0	0	0	312.630489735166	312.83047783724
105874.25	100	482	13	1	15	14	15	7	0	0	0	stim016_stimuli_original_vehicles_planes_4.png	J	0	0	0	313.030502023175	313.23050207179
105974.25	100	483	13	1	15	15	9	14	0	0	0	stim010_stimuli_original_vehicles_boats_2.png	V	0	0	0	313.430510653881	313.630513872253
106074.25	100	484	13	1	15	16	6	10	0	0	0	stim007_stimuli_original_animals_fish_3.png	Q	0	0	0	313.830518309493	314.030503973598
106174.25	100	485	13	1	15	17	0	3	0	0	0	stim001_stimuli_original_animals_birds_1.png	D	0	0	0	314.230533523252	314.430532596773
106274.25	100	486	13	1	15	18	3	0	0	0	0	stim004_stimuli_original_animals_birds_4.png	A	0	0	0	314.630541666644	314.830524892546
106374.25	100	487	13	1	15	19	10	6	0	0	0	stim011_stimuli_original_vehicles_boats_3.png	G	0	0	0	315.030552003998	315.230539130978
106474.25	100	488	13	1	15	20	14	9	0	0	0	stim015_stimuli_original_vehicles_planes_3.png	L	0	0	0	315.430709114764	315.630571411224
106574.25	100	489	13	1	15	21	7	15	0	0	0	stim008_stimuli_original_animals_fish_4.png	Y	0	0	0	315.830574385822	316.030575653538
106674.25	100	490	13	1	15	22	0	10	0	0	0	stim001_stimuli_original_animals_birds_1.png	Q	0	0	0	316.230566193815	316.430585747352
106774.25	100	491	13	1	15	23	1	1	0	0	0	stim002_stimuli_original_animals_birds_2.png	B	0	0	0	316.630592379021	316.830594622064
106874.25	100	492	13	1	15	24	13	11	0	0	0	stim014_stimuli_original_vehicles_planes_2.png	R	0	0	0	317.030602716375	317.230608860496
106974.25	100	493	13	1	15	25	0	12	1	0	0	stim001_stimuli_original_animals_birds_1.png	T	0	0	0	317.430616954807	317.63060359424
107074.25	100	494	13	1	15	26	9	2	0	0	0	stim010_stimuli_original_vehicles_boats_2.png	C	0	0	0	317.830609250581	318.030627585016
107174.25	100	495	13	1	15	27	0	3	1	0	0	stim001_stimuli_original_animals_birds_1.png	D	0	0	0	318.230619831942	318.430626219604
107274.25	100	496	13	1	15	28	4	13	0	0	0	stim005_stimuli_original_animals_fish_1.png	U	0	0	0	318.630647723563	318.83063826384
107374.25	100	497	13	1	15	29	5	10	0	1	0	stim006_stimuli_original_animals_fish_2.png	Q	0	0	0	319.030655135401	319.230664692819
107474.25	100	498	13	1	15	30	2	8	0	0	0	stim003_stimuli_original_animals_birds_3.png	K	0	0	0	319.430672543356	319.630669178907
107574.25	100	499	13	1	15	31	8	10	0	1	1	stim009_stimuli_original_vehicles_boats_1.png	Q	0	0	0	319.830684587592	320.030681466917
107674.25	100	500	13	1	15	32	11	7	0	0	0	stim012_stimuli_original_vehicles_boats_4.png	J	0	0	0	320.230691268109	320.430693511153
107774.25	100	501	13	1	15	33	15	5	0	0	0	stim016_stimuli_original_vehicles_planes_4.png	F	d	320.623281752924	1	320.630705262767	320.831095406553
107874.25	100	502	13	1	15	34	12	4	0	0	0	stim013_stimuli_original_vehicles_planes_1.png	E	0	0	0	321.030711699277	321.230716868071
107974.25	100	503	13	1	15	35	6	14	0	0	0	stim007_stimuli_original_animals_fish_3.png	V	0	0	0	321.430721792858	321.630727693206
108770.25	100	504	14	0	27	0	8	3	0	0	0	stim009_stimuli_original_vehicles_boats_1.png	D	0	0	0	324.614112080075	324.814111885149
108870.25	100	505	14	0	27	1	3	1	0	0	0	stim004_stimuli_original_animals_birds_4.png	B	0	0	0	325.014120223466	325.214122222736
108970.25	100	506	14	0	27	2	15	11	0	0	0	stim016_stimuli_original_vehicles_planes_4.png	R	0	0	0	325.414131536148	325.614135485841
109070.25	100	507	14	0	27	3	1	15	0	0	0	stim002_stimuli_original_animals_birds_2.png	Y	0	0	0	325.81417771359	326.014162890147
109170.25	100	508	14	0	27	4	12	0	1	0	0	stim013_stimuli_original_vehicles_planes_1.png	A	0	0	0	326.214165620739	326.414183223853
109270.25	100	509	14	0	27	5	7	10	0	0	0	stim008_stimuli_original_animals_fish_4.png	Q	0	0	0	326.614194975467	326.814197462285
109370.25	100	510	14	0	27	6	12	13	1	1	1	stim013_stimuli_original_vehicles_planes_1.png	U	0	0	0	327.014187271008	327.214213651139
109470.25	100	511	14	0	27	7	14	6	0	0	0	stim015_stimuli_original_vehicles_planes_3.png	G	0	0	0	327.41421272466	327.614215455484
109570.25	100	512	14	0	27	8	10	13	0	1	0	stim011_stimuli_original_vehicles_boats_3.png	U	d	327.806809548754	1	327.814213066129	328.01422701194
109670.25	100	513	14	0	27	9	5	12	0	0	0	stim006_stimuli_original_animals_fish_2.png	T	0	0	0	328.214650070062	328.414246126544
109770.25	100	514	14	0	27	10	4	4	0	0	0	stim005_stimuli_original_animals_fish_1.png	E	0	0	0	328.614249588689	328.814253782155
109870.25	100	515	14	0	27	11	12	13	0	0	0	stim013_stimuli_original_vehicles_planes_1.png	U	0	0	0	329.014256756753	329.214260462672
109970.25	100	516	14	0	27	12	11	2	0	0	0	stim012_stimuli_original_vehicles_boats_4.png	C	0	0	0	329.414270263631	329.614272506675
110070.25	100	517	14	0	27	13	6	9	0	0	0	stim007_stimuli_original_animals_fish_3.png	L	0	0	0	329.814282064093	330.014287720434
110170.25	100	518	14	0	27	14	9	8	0	0	0	stim010_stimuli_original_vehicles_boats_2.png	K	0	0	0	330.214275091188	330.4142961076
110270.25	100	519	14	0	27	15	0	14	0	0	0	stim001_stimuli_original_animals_birds_1.png	V	0	0	0	330.614300301066	330.814313028008
110370.25	100	520	14	0	27	16	13	7	0	0	0	stim014_stimuli_original_vehicles_planes_2.png	J	0	0	0	331.014285526238	331.214316782542
110470.25	100	521	14	0	27	17	2	5	0	0	0	stim003_stimuli_original_animals_birds_3.png	F	0	0	0	331.414296838921	331.614331020974
110570.25	100	522	14	0	27	18	5	2	0	0	0	stim006_stimuli_original_animals_fish_2.png	C	0	0	0	331.814332532696	332.014319659444
110670.25	100	523	14	0	27	19	7	13	0	0	0	stim008_stimuli_original_animals_fish_4.png	U	0	0	0	332.214360912098	332.414346819976
110770.25	100	524	14	0	27	20	14	0	0	0	0	stim015_stimuli_original_vehicles_planes_3.png	A	0	0	0	332.614356620936	332.814357888885
110870.25	100	525	14	0	27	21	8	9	0	0	0	stim009_stimuli_original_vehicles_boats_1.png	L	0	0	0	333.014366714749	333.214368226472
110970.25	100	526	14	0	27	22	9	6	0	0	0	stim010_stimuli_original_vehicles_boats_2.png	G	0	0	0	333.414361692267	333.614557276247
111070.25	100	527	14	0	27	23	2	11	0	0	0	stim003_stimuli_original_animals_birds_3.png	R	0	0	0	333.814390315441	334.014383049915
111170.25	100	528	14	0	27	24	13	12	0	0	0	stim014_stimuli_original_vehicles_planes_2.png	T	0	0	0	334.214394313982	334.414398019901
111270.25	100	529	14	0	27	25	4	4	0	0	0	stim005_stimuli_original_animals_fish_1.png	E	0	0	0	334.614406358218	334.814405675512
111370.25	100	530	14	0	27	26	12	5	0	0	0	stim013_stimuli_original_vehicles_planes_1.png	F	0	0	0	335.01441523293	335.214417231968
111470.25	100	531	14	0	27	27	13	10	1	0	0	stim014_stimuli_original_vehicles_planes_2.png	Q	0	0	0	335.414429227589	335.614440247649
111570.25	100	532	14	0	27	28	6	14	0	0	0	stim007_stimuli_original_animals_fish_3.png	V	0	0	0	335.814426155528	336.014445709065
111670.25	100	533	14	0	27	29	13	12	1	1	1	stim014_stimuli_original_vehicles_planes_2.png	T	0	0	0	336.214448439656	336.414437760832
111770.25	100	534	14	0	27	30	10	7	0	0	0	stim011_stimuli_original_vehicles_boats_3.png	J	d	336.806237328099	1	336.614461946767	336.814464433584
111870.25	100	535	14	0	27	31	0	12	0	1	0	stim001_stimuli_original_animals_birds_1.png	T	0	0	0	337.014456924284	337.214472576743
111970.25	100	536	14	0	27	32	15	1	0	0	0	stim016_stimuli_original_vehicles_planes_4.png	B	0	0	0	337.414483109256	337.614483401878
112070.25	100	537	14	0	27	33	11	15	0	0	0	stim012_stimuli_original_vehicles_boats_4.png	Y	0	0	0	337.814496372594	338.014498615637
112170.25	100	538	14	0	27	34	1	3	0	0	0	stim002_stimuli_original_animals_birds_2.png	D	0	0	0	338.214502809104	338.414489448303
112270.25	100	539	14	0	27	35	3	8	0	0	0	stim004_stimuli_original_animals_birds_4.png	K	0	0	0	338.614518998191	338.814520509681
113899.5	100	540	15	1	45	0	3	11	0	0	0	stim004_stimuli_original_animals_birds_4.png	R	0	0	0	345.131363304332	345.331350675086
113999.5	100	541	15	1	45	1	4	8	0	0	0	stim005_stimuli_original_animals_fish_1.png	K	0	0	0	345.531357062748	345.731363694416
114099.5	100	542	15	1	45	2	13	6	0	0	0	stim014_stimuli_original_vehicles_planes_2.png	G	0	0	0	345.931369350757	346.131372325355
114199.5	100	543	15	1	45	3	5	3	0	0	0	stim006_stimuli_original_animals_fish_2.png	D	0	0	0	346.331358233001	346.531359744724
114299.5	100	544	15	1	45	4	11	4	0	0	0	stim012_stimuli_original_vehicles_boats_4.png	E	0	0	0	346.731401241152	346.931398851797
114399.5	100	545	15	1	45	5	6	7	0	0	0	stim007_stimuli_original_animals_fish_3.png	J	0	0	0	347.131419380428	347.331421135925
114499.5	100	546	15	1	45	6	8	0	0	0	0	stim009_stimuli_original_vehicles_boats_1.png	A	0	0	0	347.531422891421	347.731423427816
114599.5	100	547	15	1	45	7	15	15	0	0	0	stim016_stimuli_original_vehicles_planes_4.png	Y	0	0	0	347.931432009907	348.131488622399
114699.5	100	548	15	1	45	8	9	2	0	0	0	stim010_stimuli_original_vehicles_boats_2.png	C	0	0	0	348.331442591269	348.531439226586
114799.5	100	549	15	1	45	9	12	1	0	0	0	stim013_stimuli_original_vehicles_planes_1.png	B	0	0	0	348.731458048569	348.931457366096
114899.5	100	550	15	1	45	10	15	10	1	0	0	stim016_stimuli_original_vehicles_planes_4.png	Q	0	0	0	349.131437422475	349.331468435004
114999.5	100	551	15	1	45	11	0	14	0	0	0	stim001_stimuli_original_animals_birds_1.png	V	0	0	0	349.531477017095	349.731483648764
115099.5	100	552	15	1	45	12	15	3	1	1	0	stim016_stimuli_original_vehicles_planes_4.png	D	0	0	0	349.931492474629	350.131495936774
115199.5	100	553	15	1	45	13	7	5	0	0	0	stim008_stimuli_original_animals_fish_4.png	F	0	0	0	350.331503787311	350.531501885736
115299.5	100	554	15	1	45	14	14	3	0	1	1	stim015_stimuli_original_vehicles_planes_3.png	D	0	0	0	350.731477309717	350.931509053567
115399.5	100	555	15	1	45	15	2	13	0	0	0	stim003_stimuli_original_animals_birds_3.png	U	0	0	0	351.131517635658	351.33152085403
115499.5	100	556	15	1	45	16	10	12	0	0	0	stim011_stimuli_original_vehicles_boats_3.png	T	f	351.524083495839	1	351.531534312293	351.731533873361
115599.5	100	557	15	1	45	17	1	9	0	0	0	stim002_stimuli_original_animals_birds_2.png	L	0	0	0	351.931522219442	352.131525925128
115699.5	100	558	15	1	45	18	9	1	0	0	0	stim010_stimuli_original_vehicles_boats_2.png	B	0	0	0	352.331546941539	352.531554304762
115799.5	100	559	15	1	45	19	12	10	0	0	0	stim013_stimuli_original_vehicles_planes_1.png	Q	0	0	0	352.731559229549	352.931560497498
115899.5	100	560	15	1	45	20	13	2	0	0	0	stim014_stimuli_original_vehicles_planes_2.png	C	0	0	0	353.131542260526	353.331540846266
115999.5	100	561	15	1	45	21	3	14	1	0	0	stim004_stimuli_original_animals_birds_4.png	V	0	0	0	353.531584537122	353.731596776284
116099.5	100	562	15	1	45	22	5	7	0	0	0	stim006_stimuli_original_animals_fish_2.png	J	0	0	0	353.931592924055	354.131592729129
116199.5	100	563	15	1	45	23	3	15	1	1	0	stim004_stimuli_original_animals_birds_4.png	Y	0	0	0	354.331602773862	354.531607455108
116299.5	100	564	15	1	45	24	14	0	0	0	0	stim015_stimuli_original_vehicles_planes_3.png	A	0	0	0	354.731623595348	354.931599019328
116399.5	100	565	15	1	45	25	10	15	0	1	1	stim011_stimuli_original_vehicles_boats_3.png	Y	0	0	0	355.131631007185	355.331610819791
116499.5	100	566	15	1	45	26	1	12	0	0	0	stim002_stimuli_original_animals_birds_2.png	T	0	0	0	355.531636712141	355.731644319138
116599.5	100	567	15	1	45	27	2	9	0	0	0	stim003_stimuli_original_animals_birds_3.png	L	0	0	0	355.931647049729	356.131633688929
116699.5	100	568	15	1	45	28	15	15	0	0	0	stim016_stimuli_original_vehicles_planes_4.png	Y	0	0	0	356.331653730245	356.531662312336
116799.5	100	569	15	1	45	29	0	8	0	0	0	stim001_stimuli_original_animals_birds_1.png	K	0	0	0	356.731651633279	356.931657045847
116899.5	100	570	15	1	45	30	7	6	0	0	0	stim008_stimuli_original_animals_fish_4.png	G	0	0	0	357.131676111836	357.331679330207
116999.5	100	571	15	1	45	31	4	11	0	0	0	stim005_stimuli_original_animals_fish_1.png	R	0	0	0	357.531697420869	357.731692837086
117099.5	100	572	15	1	45	32	3	5	0	0	0	stim004_stimuli_original_animals_birds_4.png	F	0	0	0	357.93168435269	358.131687327055
117199.5	100	573	15	1	45	33	6	13	0	0	0	stim007_stimuli_original_animals_fish_3.png	U	0	0	0	358.331710781436	358.531694495119
117299.5	100	574	15	1	45	34	8	4	0	0	0	stim009_stimuli_original_vehicles_boats_1.png	E	0	0	0	358.73169064289	358.931700687855
117399.5	100	575	15	1	45	35	11	3	0	0	0	stim012_stimuli_original_vehicles_boats_4.png	D	0	0	0	359.131701955572	359.331699322443
118178.75	100	576	16	0	22	0	1	3	0	0	0	stim002_stimuli_original_animals_birds_2.png	D	0	0	0	362.248490331927	362.448471851181
118278.75	100	577	16	0	22	1	11	12	0	0	0	stim012_stimuli_original_vehicles_boats_4.png	T	0	0	0	362.648475800874	362.848502425011
118378.75	100	578	16	0	22	2	9	10	0	0	0	stim010_stimuli_original_vehicles_boats_2.png	Q	0	0	0	363.048490039306	363.248513981467
118478.75	100	579	16	0	22	3	12	2	0	0	0	stim013_stimuli_original_vehicles_planes_1.png	C	0	0	0	363.448519637808	363.648523831507
118578.75	100	580	16	0	22	4	2	13	0	0	0	stim003_stimuli_original_animals_birds_3.png	U	0	0	0	363.848529244075	364.048530511791
118678.75	100	581	16	0	22	5	4	11	0	0	0	stim005_stimuli_original_animals_fish_1.png	R	0	0	0	364.248539581429	364.448546456872
118778.75	100	582	16	0	22	6	3	15	0	0	0	stim004_stimuli_original_animals_birds_4.png	Y	0	0	0	364.648546017939	364.84853680199
118878.75	100	583	16	0	22	7	10	14	0	0	0	stim011_stimuli_original_vehicles_boats_3.png	V	0	0	0	365.048561963253	365.248568838695
118978.75	100	584	16	0	22	8	11	8	1	0	0	stim012_stimuli_original_vehicles_boats_4.png	K	0	0	0	365.448572300607	365.648578688502
119078.75	100	585	16	0	22	9	13	4	0	0	0	stim014_stimuli_original_vehicles_planes_2.png	E	0	0	0	365.848580443999	366.048586344114
119178.75	100	586	16	0	22	10	11	7	1	1	1	stim012_stimuli_original_vehicles_boats_4.png	J	0	0	0	366.248579078587	366.448605702491
119278.75	100	587	16	0	22	11	7	0	0	0	0	stim008_stimuli_original_animals_fish_4.png	A	0	0	0	366.648605751339	366.848589708796
119378.75	100	588	16	0	22	12	15	7	0	1	0	stim016_stimuli_original_vehicles_planes_4.png	J	0	0	0	367.04858853831	367.248618331971
119478.75	100	589	16	0	22	13	6	5	0	0	0	stim007_stimuli_original_animals_fish_3.png	F	0	0	0	367.448625451187	367.648626231356
119578.75	100	590	16	0	22	14	5	6	0	0	0	stim006_stimuli_original_animals_fish_2.png	G	0	0	0	367.849016131368	368.048645589733
119678.75	100	591	16	0	22	15	0	1	0	0	0	stim001_stimuli_original_animals_birds_1.png	B	0	0	0	368.248646613909	368.4486493445
119778.75	100	592	16	0	22	16	8	9	0	0	0	stim009_stimuli_original_vehicles_boats_1.png	L	0	0	0	368.648657439044	368.848642859142
119878.75	100	593	16	0	22	17	14	7	0	0	0	stim015_stimuli_original_vehicles_planes_3.png	J	0	0	0	369.048667288851	369.248667337699
119978.75	100	594	16	0	22	18	7	14	0	0	0	stim008_stimuli_original_animals_fish_4.png	V	0	0	0	369.448662753915	369.648684989428
120078.75	100	595	16	0	22	19	9	8	0	0	0	stim010_stimuli_original_vehicles_boats_2.png	K	0	0	0	369.84869479062	370.048692645039
120178.75	100	596	16	0	22	20	1	0	0	0	0	stim002_stimuli_original_animals_birds_2.png	A	0	0	0	370.248674651841	370.448680552188
120278.75	100	597	16	0	22	21	6	5	0	0	0	stim007_stimuli_original_animals_fish_3.png	F	0	0	0	370.648676943732	370.848688451573
120378.75	100	598	16	0	22	22	5	6	0	0	0	stim006_stimuli_original_animals_fish_2.png	G	0	0	0	371.04868679354	371.248701958684
120478.75	100	599	16	0	22	23	7	15	1	0	0	stim008_stimuli_original_animals_fish_4.png	Y	0	0	0	371.448731020559	371.648736677133
120578.75	100	600	16	0	22	24	0	7	0	0	0	stim001_stimuli_original_animals_birds_1.png	J	0	0	0	371.848762569483	372.048746770713
120678.75	100	601	16	0	22	25	7	11	1	1	1	stim008_stimuli_original_animals_fish_4.png	R	0	0	0	372.248735116562	372.448739554035
120778.75	100	602	16	0	22	26	4	13	0	0	0	stim005_stimuli_original_animals_fish_1.png	U	0	0	0	372.648768372368	372.848751598271
120878.75	100	603	16	0	22	27	8	11	0	1	0	stim009_stimuli_original_vehicles_boats_1.png	R	0	0	0	373.048775540199	373.249220053665
120978.75	100	604	16	0	22	28	14	10	0	0	0	stim015_stimuli_original_vehicles_planes_3.png	Q	0	0	0	373.448771005496	373.648792021675
121078.75	100	605	16	0	22	29	15	3	0	0	0	stim016_stimuli_original_vehicles_planes_4.png	D	0	0	0	373.848798653344	374.048799433513
121178.75	100	606	16	0	22	30	11	4	0	0	0	stim012_stimuli_original_vehicles_boats_4.png	E	0	0	0	374.248807528056	374.448807820678
121278.75	100	607	16	0	22	31	13	2	0	0	0	stim014_stimuli_original_vehicles_planes_2.png	C	0	0	0	374.648824936012	374.848810843891
121378.75	100	608	16	0	22	32	2	12	0	0	0	stim003_stimuli_original_animals_birds_3.png	T	0	0	0	375.048818938434	375.248825082323
121478.75	100	609	16	0	22	33	10	9	0	0	0	stim011_stimuli_original_vehicles_boats_3.png	L	0	0	0	375.448828544468	375.648832981708
121578.75	100	610	16	0	22	34	12	11	0	0	0	stim013_stimuli_original_vehicles_planes_1.png	R	0	0	0	375.848843270447	376.048842587741
121678.75	100	611	16	0	22	35	3	1	0	0	0	stim004_stimuli_original_animals_birds_4.png	B	0	0	0	376.24885214516	376.448862433899
123149.75	100	612	17	1	34	0	1	0	0	0	0	stim002_stimuli_original_animals_birds_2.png	A	0	0	0	382.132330740103	382.33232371835
123249.75	100	613	17	1	34	1	10	7	0	0	0	stim011_stimuli_original_vehicles_boats_3.png	J	0	0	0	382.53233985859	382.73234185786
123349.75	100	614	17	1	34	2	15	12	0	0	0	stim016_stimuli_original_vehicles_planes_4.png	T	0	0	0	382.932368237991	383.132374138338
123449.75	100	615	17	1	34	3	6	14	0	0	0	stim007_stimuli_original_animals_fish_3.png	V	0	0	0	383.332377600251	383.532821138389
123549.75	100	616	17	1	34	4	11	3	0	0	0	stim012_stimuli_original_vehicles_boats_4.png	D	0	0	0	383.732390132267	383.932395544834
123649.75	100	617	17	1	34	5	5	11	1	0	0	stim006_stimuli_original_animals_fish_2.png	R	0	0	0	384.132407052442	384.332404663088
123749.75	100	618	17	1	34	6	12	2	0	0	0	stim013_stimuli_original_vehicles_planes_1.png	C	0	0	0	384.532410563435	384.732412562706
123849.75	100	619	17	1	34	7	5	10	1	0	0	stim006_stimuli_original_animals_fish_2.png	Q	0	0	0	384.932414805749	385.132420218317
123949.75	100	620	17	1	34	8	3	3	0	1	0	stim004_stimuli_original_animals_birds_4.png	D	0	0	0	385.332424168009	385.532430068124
124049.75	100	621	17	1	34	9	8	8	0	0	0	stim009_stimuli_original_vehicles_boats_1.png	K	0	0	0	385.732439137762	385.932435773313
124149.75	100	622	17	1	34	10	4	3	0	1	1	stim005_stimuli_original_animals_fish_1.png	D	0	0	0	386.132456058171	386.332449767971
124249.75	100	623	17	1	34	11	5	13	0	0	0	stim006_stimuli_original_animals_fish_2.png	U	s	386.724219102645	1	386.532454448985	386.73245791113
124349.75	100	624	17	1	34	12	9	9	0	0	0	stim010_stimuli_original_vehicles_boats_2.png	L	0	0	0	386.93246819987	387.132469224045
124449.75	100	625	17	1	34	13	14	4	0	0	0	stim015_stimuli_original_vehicles_planes_3.png	E	0	0	0	387.332481950754	387.532485656673
124549.75	100	626	17	1	34	14	7	6	0	0	0	stim008_stimuli_original_animals_fish_4.png	G	0	0	0	387.732487168396	387.932490630308
124649.75	100	627	17	1	34	15	2	5	0	0	0	stim003_stimuli_original_animals_birds_3.png	F	0	0	0	388.132498724852	388.33251072024
124749.75	100	628	17	1	34	16	0	15	0	0	0	stim001_stimuli_original_animals_birds_1.png	Y	0	0	0	388.532509306213	388.732511549257
124849.75	100	629	17	1	34	17	13	1	0	0	0	stim014_stimuli_original_vehicles_planes_2.png	B	0	0	0	388.932524763746	389.132526519243
124949.75	100	630	17	1	34	18	1	13	0	0	0	stim002_stimuli_original_animals_birds_2.png	U	0	0	0	389.332530956483	389.532535149949
125049.75	100	631	17	1	34	19	15	0	0	0	0	stim016_stimuli_original_vehicles_planes_4.png	A	0	0	0	389.732539343415	389.93254329334
125149.75	100	632	17	1	34	20	5	2	0	0	0	stim006_stimuli_original_animals_fish_2.png	C	0	0	0	390.132558458252	390.332568746991
125249.75	100	633	17	1	34	21	6	7	0	0	0	stim007_stimuli_original_animals_fish_3.png	J	0	0	0	390.532570746262	390.732559335884
125349.75	100	634	17	1	34	22	4	14	0	0	0	stim005_stimuli_original_animals_fish_1.png	V	0	0	0	390.932568405522	391.132587471511
125449.75	100	635	17	1	34	23	9	9	0	0	0	stim010_stimuli_original_vehicles_boats_2.png	L	0	0	0	391.332581668859	391.532596833771
125549.75	100	636	17	1	34	24	13	5	0	0	0	stim014_stimuli_original_vehicles_planes_2.png	F	0	0	0	391.732587130275	391.932588154217
125649.75	100	637	17	1	34	25	3	4	1	0	0	stim004_stimuli_original_animals_birds_4.png	E	0	0	0	392.132615265669	392.332619459368
125749.75	100	638	17	1	34	26	8	8	0	0	0	stim009_stimuli_original_vehicles_boats_1.png	K	0	0	0	392.532604879467	392.732632966246
125849.75	100	639	17	1	34	27	3	3	1	0	0	stim004_stimuli_original_animals_birds_4.png	D	0	0	0	392.932641304564	393.132646229584
125949.75	100	640	17	1	34	28	10	5	0	1	0	stim011_stimuli_original_vehicles_boats_3.png	F	0	0	0	393.332652129699	393.532652178546
126049.75	100	641	17	1	34	29	2	12	0	0	0	stim003_stimuli_original_animals_birds_3.png	T	0	0	0	393.732657103566	393.932660321705
126149.75	100	642	17	1	34	30	11	5	0	1	1	stim012_stimuli_original_vehicles_boats_4.png	F	0	0	0	394.133052172372	394.332677485887
126249.75	100	643	17	1	34	31	3	11	0	0	0	stim004_stimuli_original_animals_birds_4.png	R	0	0	0	394.532683142228	394.732682459755
126349.75	100	644	17	1	34	32	14	6	0	0	0	stim015_stimuli_original_vehicles_planes_3.png	G	0	0	0	394.932689822745	395.132696210407
126449.75	100	645	17	1	34	33	12	15	0	0	0	stim013_stimuli_original_vehicles_planes_1.png	Y	0	0	0	395.332704061177	395.53270264715
126549.75	100	646	17	1	34	34	7	10	0	0	0	stim008_stimuli_original_animals_fish_4.png	Q	0	0	0	395.73269586917	395.932699575089
126649.75	100	647	17	1	34	35	0	1	0	0	0	stim001_stimuli_original_animals_birds_1.png	B	0	0	0	396.13272302947	396.332725760294
127799.75	100	648	18	0	23	0	2	1	0	0	0	stim003_stimuli_original_animals_birds_3.png	B	0	0	0	400.732824844308	400.932820504531
127899.75	100	649	18	0	23	1	13	14	0	0	0	stim014_stimuli_original_vehicles_planes_2.png	V	0	0	0	401.132831281051	401.332834986737
127999.75	100	650	18	0	23	2	4	5	0	0	0	stim005_stimuli_original_animals_fish_1.png	F	0	0	0	401.532842106186	401.73284434923
128099.75	100	651	18	0	23	3	15	2	0	0	0	stim016_stimuli_original_vehicles_planes_4.png	C	0	0	0	401.932850980666	402.132855174365
128199.75	100	652	18	0	23	4	11	15	0	0	0	stim012_stimuli_original_vehicles_boats_4.png	Y	0	0	0	402.33285522298	402.532860148
128299.75	100	653	18	0	23	5	10	9	0	0	0	stim011_stimuli_original_vehicles_boats_3.png	L	0	0	0	402.73287116806	402.932872192236
128400	100	654	18	0	23	6	15	4	1	0	0	stim016_stimuli_original_vehicles_planes_4.png	E	0	0	0	403.133319143672	403.332918369677
128499.75	100	655	18	0	23	7	9	12	0	0	0	stim010_stimuli_original_vehicles_boats_2.png	T	0	0	0	403.532922806917	403.732925537741
128599.75	100	656	18	0	23	8	15	0	1	0	1	stim016_stimuli_original_vehicles_planes_4.png	A	0	0	0	403.932930706535	404.132919296157
128699.75	100	657	18	0	23	9	6	11	0	0	0	stim007_stimuli_original_animals_fish_3.png	R	0	0	0	404.332942994311	404.532948650885
128799.75	100	658	18	0	23	10	3	8	0	0	0	stim004_stimuli_original_animals_birds_4.png	K	0	0	0	404.732935046311	404.932955574943
128899.75	100	659	18	0	23	11	7	12	0	1	0	stim008_stimuli_original_animals_fish_4.png	T	0	0	0	405.132947334321	405.332952259108
128999.75	100	660	18	0	23	12	0	13	0	0	0	stim001_stimuli_original_animals_birds_1.png	U	0	0	0	405.532954258379	405.732996486127
129099.75	100	661	18	0	23	13	8	12	0	1	0	stim009_stimuli_original_vehicles_boats_1.png	T	0	0	0	405.932984588202	406.132986587472
129199.75	100	662	18	0	23	14	12	10	0	0	0	stim013_stimuli_original_vehicles_planes_1.png	Q	0	0	0	406.3329683505	406.532995705958
129299.75	100	663	18	0	23	15	5	6	0	0	0	stim006_stimuli_original_animals_fish_2.png	G	0	0	0	406.733005507151	406.933008481748
129399.75	100	664	18	0	23	16	1	7	0	0	0	stim002_stimuli_original_animals_birds_2.png	J	0	0	0	407.133034130326	407.333044663072
129499.75	100	665	18	0	23	17	14	3	0	0	0	stim015_stimuli_original_vehicles_planes_3.png	D	0	0	0	407.533031302271	407.733029644238
129599.75	100	666	18	0	23	18	3	14	0	0	0	stim004_stimuli_original_animals_birds_4.png	V	0	0	0	407.933039689204	408.133022915106
129699.75	100	667	18	0	23	19	7	1	0	0	0	stim008_stimuli_original_animals_fish_4.png	B	0	0	0	408.333049783017	408.533287545899
129799.75	100	668	18	0	23	20	6	5	0	0	0	stim007_stimuli_original_animals_fish_3.png	F	0	0	0	408.733064265223	408.933060900774
129899.75	100	669	18	0	23	21	10	12	0	0	0	stim011_stimuli_original_vehicles_boats_3.png	T	0	0	0	409.133067044662	409.333072701003
129999.75	100	670	18	0	23	22	12	8	1	0	0	stim013_stimuli_original_vehicles_planes_1.png	K	0	0	0	409.533079820219	409.733075480442
130099.75	100	671	18	0	23	23	13	0	0	0	0	stim014_stimuli_original_vehicles_planes_2.png	A	0	0	0	409.933089914033	410.133077772334
130199.75	100	672	18	0	23	24	12	7	1	0	1	stim013_stimuli_original_vehicles_planes_1.png	J	0	0	0	410.333089280175	410.53311054036
130299.75	100	673	18	0	23	25	8	3	0	0	0	stim009_stimuli_original_vehicles_boats_1.png	D	0	0	0	410.733110832749	410.933116001543
130399.75	100	674	18	0	23	26	11	6	0	0	0	stim012_stimuli_original_vehicles_boats_4.png	G	d	411.125656944467	1	411.13313019136	411.333124388708
130499.75	100	675	18	0	23	27	0	15	0	1	0	stim001_stimuli_original_animals_birds_1.png	Y	0	0	0	411.533135164995	411.733138383366
130599.75	100	676	18	0	23	28	12	9	0	0	0	stim013_stimuli_original_vehicles_planes_1.png	L	0	0	0	411.933144039707	412.13313311711
130699.75	100	677	18	0	23	29	4	15	0	1	0	stim005_stimuli_original_animals_fish_1.png	Y	0	0	0	412.333142186748	412.533142723143
130799.75	100	678	18	0	23	30	9	10	0	0	0	stim010_stimuli_original_vehicles_boats_2.png	Q	0	0	0	412.733169347048	412.933169639669
130899.75	100	679	18	0	23	31	15	11	0	0	0	stim016_stimuli_original_vehicles_planes_4.png	R	0	0	0	413.133176027564	413.333179733483
130999.75	100	680	18	0	23	32	2	15	0	0	0	stim003_stimuli_original_animals_birds_3.png	Y	0	0	0	413.533192460192	413.733189095743
131099.75	100	681	18	0	23	33	5	4	0	0	0	stim006_stimuli_original_animals_fish_2.png	E	0	0	0	413.933206454851	414.13317529601
131199.75	100	682	18	0	23	34	14	13	0	0	0	stim015_stimuli_original_vehicles_planes_3.png	U	0	0	0	414.333179733483	414.533217816381
131299.75	100	683	18	0	23	35	1	2	0	0	0	stim002_stimuli_original_animals_birds_2.png	C	0	0	0	414.73322810512	414.933197677834
132066.5	100	684	19	1	20	0	8	15	0	0	0	stim009_stimuli_original_vehicles_boats_1.png	Y	0	0	0	417.799970206572	417.999971474288
132166.5	100	685	19	1	20	1	12	2	0	0	0	stim013_stimuli_original_vehicles_planes_1.png	C	0	0	0	418.199967134511	418.399980592774
132266.5	100	686	19	1	20	2	2	5	0	0	0	stim003_stimuli_original_animals_birds_3.png	F	0	0	0	418.599997952115	418.799991905456
132366.5	100	687	19	1	20	3	0	7	0	0	0	stim001_stimuli_original_animals_birds_1.png	J	0	0	0	418.99998512771	419.200007119216
132466.5	100	688	19	1	20	4	9	9	0	0	0	stim010_stimuli_original_vehicles_boats_2.png	L	0	0	0	419.399996440392	419.599996733014
132566.5	100	689	19	1	20	5	6	13	0	0	0	stim007_stimuli_original_animals_fish_3.png	U	0	0	0	419.800020918949	420.000032914337
132666.5	100	690	19	1	20	6	4	8	0	0	0	stim005_stimuli_original_animals_fish_1.png	K	0	0	0	420.200038814452	420.400034962222
132766.5	100	691	19	1	20	7	7	11	0	0	0	stim008_stimuli_original_animals_fish_4.png	R	0	0	0	420.600050127134	420.800044568256
132866.5	100	692	19	1	20	8	12	0	1	0	0	stim013_stimuli_original_vehicles_planes_1.png	A	0	0	0	421.000038278056	421.200064658187
132966.5	100	693	19	1	20	9	15	1	0	0	0	stim016_stimuli_original_vehicles_planes_4.png	B	0	0	0	421.400070070755	421.600052077789
133066.5	100	694	19	1	20	10	12	8	1	1	0	stim013_stimuli_original_vehicles_planes_1.png	K	0	0	0	421.800049688434	422.000082651386
133166.5	100	695	19	1	20	11	3	6	0	0	0	stim004_stimuli_original_animals_birds_4.png	G	0	0	0	422.20008782018	422.40008933167
133266.5	100	696	19	1	20	12	13	8	0	1	1	stim014_stimuli_original_vehicles_planes_2.png	K	0	0	0	422.600094744237	422.800083090318
133366.5	100	697	19	1	20	13	10	14	0	0	0	stim011_stimuli_original_vehicles_boats_3.png	V	0	0	0	423.00011020177	423.200111713493
133466.5	100	698	19	1	20	14	11	3	0	0	0	stim012_stimuli_original_vehicles_boats_4.png	D	0	0	0	423.400106398389	423.6001215633
133566.5	100	699	19	1	20	15	14	12	0	0	0	stim015_stimuli_original_vehicles_planes_3.png	T	0	0	0	423.800135021564	424.000135801965
133666.5	100	700	19	1	20	16	1	10	0	0	0	stim002_stimuli_original_animals_birds_2.png	Q	0	0	0	424.200142677175	424.400123221334
133766.5	100	701	19	1	20	17	5	4	0	0	0	stim006_stimuli_original_animals_fish_2.png	E	0	0	0	424.600131071871	424.800135509344
133866.5	100	702	19	1	20	18	4	5	0	0	0	stim005_stimuli_original_animals_fish_1.png	F	0	0	0	425.000143116107	425.200175591512
133966.5	100	703	19	1	20	19	10	1	0	0	0	stim011_stimuli_original_vehicles_boats_3.png	B	0	0	0	425.400172958383	425.600175201427
134066.5	100	704	19	1	20	20	12	14	0	0	0	stim013_stimuli_original_vehicles_planes_1.png	V	0	0	0	425.800182808423	426.000186514109
134166.5	100	705	19	1	20	21	3	11	0	0	0	stim004_stimuli_original_animals_birds_4.png	R	0	0	0	426.200192658231	426.400196851697
134266.75	100	706	19	1	20	22	14	10	0	0	0	stim015_stimuli_original_vehicles_planes_3.png	Q	0	0	0	426.600616740296	426.800213772105
134366.5	100	707	19	1	20	23	8	13	1	0	0	stim009_stimuli_original_vehicles_boats_1.png	U	0	0	0	427.000184563687	427.200192658231
134466.5	100	708	19	1	20	24	6	3	0	0	0	stim007_stimuli_original_animals_fish_3.png	D	0	0	0	427.400193682173	427.600195681443
134566.5	100	709	19	1	20	25	8	12	1	1	0	stim009_stimuli_original_vehicles_boats_1.png	T	0	0	0	427.80020645773	428.000209188554
134666.5	100	710	19	1	20	26	1	15	0	0	0	stim002_stimuli_original_animals_birds_2.png	Y	0	0	0	428.200252635404	428.400250002276
134766.5	100	711	19	1	20	27	0	12	0	1	1	stim001_stimuli_original_animals_birds_1.png	T	0	0	0	428.600255902391	428.800228888402
134866.5	100	712	19	1	20	28	11	7	0	0	0	stim012_stimuli_original_vehicles_boats_4.png	J	0	0	0	429.00023795804	429.200276284944
134966.5	100	713	19	1	20	29	8	4	0	0	0	stim009_stimuli_original_vehicles_boats_1.png	E	0	0	0	429.400281941285	429.6002819899
135066.75	100	714	19	1	20	30	13	6	0	0	0	stim014_stimuli_original_vehicles_planes_2.png	G	0	0	0	429.80028691492	430.000280868495
135166.75	100	715	19	1	20	31	9	9	0	0	0	stim010_stimuli_original_vehicles_boats_2.png	L	0	0	0	430.200303103775	430.40029461938
135266.75	100	716	19	1	20	32	7	0	0	0	0	stim008_stimuli_original_animals_fish_4.png	A	0	0	0	430.600315391785	430.800313733984
135366.75	100	717	19	1	20	33	5	2	0	0	0	stim006_stimuli_original_animals_fish_2.png	C	0	0	0	431.000322072301	431.200327241095
135466.75	100	718	19	1	20	34	2	12	0	0	0	stim003_stimuli_original_animals_birds_3.png	T	0	0	0	431.400330459233	431.600330508081
135566.75	100	719	19	1	20	35	15	8	0	0	0	stim016_stimuli_original_vehicles_planes_4.png	K	0	0	0	431.800332263578	432.000805058749
137920.75	100	720	20	0	21	0	4	4	0	0	0	stim005_stimuli_original_animals_fish_1.png	E	0	0	0	441.217260781443	441.417261561612
138020.75	100	721	20	0	21	1	6	6	0	0	0	stim007_stimuli_original_animals_fish_3.png	G	0	0	0	441.617270387476	441.817270923872
138120.75	100	722	20	0	21	2	0	10	0	0	0	stim001_stimuli_original_animals_birds_1.png	Q	0	0	0	442.017279505963	442.217286625411
138220.75	100	723	20	0	21	3	15	3	0	0	0	stim016_stimuli_original_vehicles_planes_4.png	D	0	0	0	442.4172927693	442.617295743665
138321	100	724	20	0	21	4	5	9	0	0	0	stim006_stimuli_original_animals_fish_2.png	L	0	0	0	442.817306520185	443.017303399276
138421	100	725	20	0	21	5	7	8	0	0	0	stim008_stimuli_original_animals_fish_4.png	K	0	0	0	443.217314175796	443.417315687286
138521	100	726	20	0	21	6	12	15	0	0	0	stim013_stimuli_original_vehicles_planes_1.png	Y	0	0	0	443.617324025603	443.817327487748
138621	100	727	20	0	21	7	2	5	0	1	0	stim003_stimuli_original_animals_birds_3.png	F	0	0	0	444.017328999471	444.217338556657
138721	100	728	20	0	21	8	8	14	0	0	0	stim009_stimuli_original_vehicles_boats_1.png	V	0	0	0	444.417347870301	444.61735401419
138821	100	729	20	0	21	9	10	5	1	1	0	stim011_stimuli_original_vehicles_boats_3.png	F	0	0	0	444.817327975295	445.017356306082
138921	100	730	20	0	21	10	1	7	0	0	0	stim002_stimuli_original_animals_birds_2.png	J	0	0	0	445.217364156619	445.417370788287
139021	100	731	20	0	21	11	10	0	1	0	1	stim011_stimuli_original_vehicles_boats_3.png	A	0	0	0	445.617380833253	445.817684912356
139121	100	732	20	0	21	12	13	11	0	0	0	stim014_stimuli_original_vehicles_planes_2.png	R	0	0	0	446.017390195513	446.217391707236
139221	100	733	20	0	21	13	14	5	0	0	0	stim015_stimuli_original_vehicles_planes_3.png	F	0	0	0	446.417396144476	446.617403751239
139321	100	734	20	0	21	14	11	13	0	0	0	stim012_stimuli_original_vehicles_boats_4.png	U	0	0	0	446.817408920033	447.017411894631
139421	100	735	20	0	21	15	9	12	0	0	0	stim010_stimuli_original_vehicles_boats_2.png	T	0	0	0	447.217419013847	447.417423451087
139521	100	736	20	0	21	16	3	2	0	0	0	stim004_stimuli_original_animals_birds_4.png	C	0	0	0	447.61743690935	447.817434032448
139621	100	737	20	0	21	17	10	1	0	0	0	stim011_stimuli_original_vehicles_boats_3.png	B	0	0	0	448.017440176569	448.21743705566
139721	100	738	20	0	21	18	1	10	0	0	0	stim002_stimuli_original_animals_birds_2.png	Q	0	0	0	448.417477332987	448.617463484639
139821	100	739	20	0	21	19	2	3	0	0	0	stim003_stimuli_original_animals_birds_3.png	D	0	0	0	448.817470603855	449.017473578453
139921	100	740	20	0	21	20	12	9	0	0	0	stim013_stimuli_original_vehicles_planes_1.png	L	0	0	0	449.217480209889	449.417469774839
140021	100	741	20	0	21	21	13	11	0	0	0	stim014_stimuli_original_vehicles_planes_2.png	R	0	0	0	449.617490547476	449.817508150591
140121	100	742	20	0	21	22	5	14	0	0	0	stim006_stimuli_original_animals_fish_2.png	V	0	0	0	450.017487963196	450.217504590983
140221	100	743	20	0	21	23	11	13	0	0	0	stim012_stimuli_original_vehicles_boats_4.png	U	0	0	0	450.417513416847	450.617519560736
140321	100	744	20	0	21	24	0	10	0	1	0	stim001_stimuli_original_animals_birds_1.png	Q	0	0	0	450.817522779107	451.017526972573
140421	100	745	20	0	21	25	7	1	0	0	0	stim008_stimuli_original_animals_fish_4.png	B	0	0	0	451.217537261313	451.417521706317
140521	100	746	20	0	21	26	5	10	1	1	0	stim006_stimuli_original_animals_fish_2.png	Q	0	0	0	451.617548330454	451.817527411506
140621	100	747	20	0	21	27	14	8	0	0	0	stim015_stimuli_original_vehicles_planes_3.png	K	0	0	0	452.017533067847	452.217536773765
140721	100	748	20	0	21	28	5	2	1	0	1	stim006_stimuli_original_animals_fish_2.png	C	0	0	0	452.417537797708	452.617532970384
140821	100	749	20	0	21	29	15	12	0	0	0	stim016_stimuli_original_vehicles_planes_4.png	T	0	0	0	452.817580561852	453.017578660278
140921	100	750	20	0	21	30	8	7	0	0	0	stim009_stimuli_original_vehicles_boats_1.png	J	0	0	0	453.217586998595	453.417573881568
141021	100	751	20	0	21	31	9	5	0	0	0	stim010_stimuli_original_vehicles_boats_2.png	F	0	0	0	453.617602943676	453.817606162047
141121	100	752	20	0	21	32	3	15	0	0	0	stim004_stimuli_original_animals_birds_4.png	Y	0	0	0	454.017611330608	454.217613573652
141221	100	753	20	0	21	33	10	0	0	0	0	stim011_stimuli_original_vehicles_boats_3.png	A	0	0	0	454.417603382608	454.617623667466
141321	100	754	20	0	21	34	6	6	0	0	0	stim007_stimuli_original_animals_fish_3.png	G	0	0	0	454.817634443752	455.017635955475
141421	100	755	20	0	21	35	4	4	0	0	0	stim005_stimuli_original_animals_fish_1.png	E	0	0	0	455.21764234337	455.417644098634
142637.75	100	756	21	1	40	0	4	2	0	0	0	stim005_stimuli_original_animals_fish_1.png	C	0	0	0	460.084418772953	460.284424429294
142737.75	100	757	21	1	40	1	12	0	0	0	0	stim013_stimuli_original_vehicles_planes_1.png	A	0	0	0	460.484454222722	460.684452808695
142837.75	100	758	21	1	40	2	3	14	0	0	0	stim004_stimuli_original_animals_birds_4.png	V	0	0	0	460.884460415691	461.084462902509
142937.75	100	759	21	1	40	3	8	11	0	0	0	stim009_stimuli_original_vehicles_boats_1.png	R	0	0	0	461.284470996819	461.48447348387
143037.75	100	760	21	1	40	4	5	7	0	0	0	stim006_stimuli_original_animals_fish_2.png	J	0	0	0	461.684484747704	461.884467973607
143137.75	100	761	21	1	40	5	7	2	0	1	0	stim008_stimuli_original_animals_fish_4.png	C	0	0	0	462.084490452893	462.284496109234
143237.75	100	762	21	1	40	6	1	6	0	0	0	stim002_stimuli_original_animals_birds_2.png	G	0	0	0	462.484487380832	462.684503277298
143337.75	100	763	21	1	40	7	11	2	0	1	1	stim012_stimuli_original_vehicles_boats_4.png	C	0	0	0	462.8845333145	463.084518003277
143437.75	100	764	21	1	40	8	13	15	0	0	0	stim014_stimuli_original_vehicles_planes_2.png	Y	0	0	0	463.284524634946	463.48452736577
143537.75	100	765	21	1	40	9	1	12	1	0	0	stim002_stimuli_original_animals_birds_2.png	T	d	463.876300357515	1	463.68453472876	463.884540872648
143637.75	100	766	21	1	40	10	15	9	0	0	0	stim016_stimuli_original_vehicles_planes_4.png	L	0	0	0	464.084528730949	464.28456681408
143737.75	100	767	21	1	40	11	1	3	1	0	0	stim002_stimuli_original_animals_birds_2.png	D	0	0	0	464.484511274146	464.684561303817
143837.75	100	768	21	1	40	12	10	10	0	0	0	stim011_stimuli_original_vehicles_boats_3.png	Q	0	0	0	464.884555013618	465.084572616732
143937.75	100	769	21	1	40	13	9	13	0	0	0	stim010_stimuli_original_vehicles_boats_2.png	U	0	0	0	465.284569983603	465.484584173188
144037.75	100	770	21	1	40	14	0	4	0	0	0	stim001_stimuli_original_animals_birds_1.png	E	0	0	0	465.684721486643	465.884597680299
144137.75	100	771	21	1	40	15	2	1	0	0	0	stim003_stimuli_original_animals_birds_3.png	B	0	0	0	466.08460041089	466.284599728184
144237.75	100	772	21	1	40	16	14	5	0	0	0	stim015_stimuli_original_vehicles_planes_3.png	F	0	0	0	466.484605872305	466.684591292404
144337.75	100	773	21	1	40	17	6	8	0	0	0	stim007_stimuli_original_animals_fish_3.png	K	0	0	0	466.884599143174	467.084621378686
144437.75	100	774	21	1	40	18	8	6	0	0	0	stim009_stimuli_original_vehicles_boats_1.png	G	0	0	0	467.284600703511	467.484634885564
144537.75	100	775	21	1	40	19	5	14	0	0	0	stim006_stimuli_original_animals_fish_2.png	V	0	0	0	467.684637860162	467.884625962237
144637.75	100	776	21	1	40	20	1	2	0	0	0	stim002_stimuli_original_animals_birds_2.png	C	0	0	0	468.084648929071	468.284626791254
144737.75	100	777	21	1	40	21	4	0	0	0	0	stim005_stimuli_original_animals_fish_1.png	A	0	0	0	468.48466414283	468.68464493053
144837.75	100	778	21	1	40	22	13	9	0	0	0	stim014_stimuli_original_vehicles_planes_2.png	L	0	0	0	468.884669604013	469.084670628188
144937.75	100	779	21	1	40	23	10	10	0	0	0	stim011_stimuli_original_vehicles_boats_3.png	Q	0	0	0	469.284678478725	469.484683159972
145037.75	100	780	21	1	40	24	3	1	0	1	0	stim004_stimuli_original_animals_birds_4.png	B	0	0	0	469.684694911586	469.884690815583
145137.75	100	781	21	1	40	25	9	15	0	0	0	stim010_stimuli_original_vehicles_boats_2.png	Y	0	0	0	470.084702079417	470.284707491985
145237.75	100	782	21	1	40	26	12	1	0	1	1	stim013_stimuli_original_vehicles_planes_1.png	B	0	0	0	470.484738992294	470.684714903822
145337.75	100	783	21	1	40	27	15	13	0	0	0	stim016_stimuli_original_vehicles_planes_4.png	U	0	0	0	470.884722023038	471.085118262097
145437.75	100	784	21	1	40	28	2	11	1	0	0	stim003_stimuli_original_animals_birds_3.png	R	0	0	0	471.284736017697	471.48473826074
145537.75	100	785	21	1	40	29	6	1	0	0	0	stim007_stimuli_original_animals_fish_3.png	B	0	0	0	471.684745136183	471.884751767851
145637.75	100	786	21	1	40	30	2	7	1	0	0	stim003_stimuli_original_animals_birds_3.png	J	0	0	0	472.084738407051	472.28473674925
145737.75	100	787	21	1	40	31	7	5	0	0	0	stim008_stimuli_original_animals_fish_4.png	F	0	0	0	472.48477019975	472.684750987682
145837.75	100	788	21	1	40	32	11	8	0	0	0	stim012_stimuli_original_vehicles_boats_4.png	K	0	0	0	472.884776880266	473.084777660435
145937.75	100	789	21	1	40	33	14	3	0	0	0	stim015_stimuli_original_vehicles_planes_3.png	D	0	0	0	473.284758204361	473.484792142641
146037.75	100	790	21	1	40	34	0	12	0	0	0	stim001_stimuli_original_animals_birds_1.png	T	0	0	0	473.684799749637	473.884801261127
146137.75	100	791	21	1	40	35	2	4	0	0	0	stim003_stimuli_original_animals_birds_3.png	E	0	0	0	474.084808624117	474.284832322504
146750.25	100	792	22	0	24	0	6	3	0	0	0	stim007_stimuli_original_animals_fish_3.png	D	0	0	0	476.534897663398	476.734882595949
146850.25	100	793	22	0	24	1	15	5	0	0	0	stim016_stimuli_original_vehicles_planes_4.png	F	0	0	0	476.934861189453	477.13487001555
146950.25	100	794	22	0	24	2	12	2	0	0	0	stim013_stimuli_original_vehicles_planes_1.png	C	0	0	0	477.334895664128	477.534880596679
147050.25	100	795	22	0	24	3	11	14	0	0	0	stim012_stimuli_original_vehicles_boats_4.png	V	0	0	0	477.734915266512	477.935297120828
