onset	duration	eventnumber	sequencenumber	condition	streamnumber	stimnumber	objectstimnumber	letterstimnumber	objecttarget	lettertarget	is2back	objectstim	letterstim	response	rt	correct	time_stimon	time_stimoff
20675	100	0	0	0	33	0	11	2	0	0	0	stim012_stimuli_original_vehicles_boats_4.png	C	0	0	0	69.9954197956249	70.1954076541588
20775	100	1	0	0	33	1	2	8	0	0	0	stim003_stimuli_original_animals_birds_3.png	K	0	0	0	70.3962883427739	70.5954338391311
20875	100	2	0	0	33	2	8	3	0	0	0	stim009_stimuli_original_vehicles_boats_1.png	D	0	0	0	70.7954360824078	70.99544247007
20975	100	3	0	0	33	3	7	5	0	0	0	stim008_stimuli_original_animals_fish_4.png	F	0	0	0	71.195445200894	71.3954384229146
21075	100	4	0	0	33	4	6	13	0	0	0	stim007_stimuli_original_animals_fish_3.png	U	0	0	0	71.5954479803331	71.7954621696845
21175	100	5	0	0	33	5	15	4	0	0	0	stim016_stimuli_original_vehicles_planes_4.png	E	0	0	0	71.9954680702649	72.1954705570824
21275	100	6	0	0	33	6	10	10	0	0	0	stim011_stimuli_original_vehicles_boats_3.png	Q	0	0	0	72.3954781638458	72.5954865021631
21375	100	7	0	0	33	7	1	14	0	0	0	stim002_stimuli_original_animals_birds_2.png	V	0	0	0	72.7954724100418	72.9954929384403
21475	100	8	0	0	33	8	9	9	0	0	0	stim010_stimuli_original_vehicles_boats_2.png	L	0	0	0	73.1955020083115	73.3955018133856
21575	100	9	0	0	33	9	0	6	0	0	0	stim001_stimuli_original_animals_birds_1.png	G	0	0	0	73.5955167342909	73.7955153202638
21675	100	10	0	0	33	10	1	12	1	0	0	stim002_stimuli_original_animals_birds_2.png	T	d	74.1872909944504	0	73.9955273158848	74.1955210254528
21775	100	11	0	0	33	11	13	11	0	0	0	stim014_stimuli_original_vehicles_planes_2.png	R	0	0	0	74.3955361903645	74.5955403838307
21875	100	12	0	0	33	12	1	10	1	1	1	stim002_stimuli_original_animals_birds_2.png	Q	0	0	0	74.795525804162	74.9955468205735
21975	100	13	0	0	33	13	12	1	0	0	0	stim013_stimuli_original_vehicles_planes_1.png	B	0	0	0	75.1955583281815	75.3955393601209
22075	100	14	0	0	33	14	3	10	0	1	0	stim004_stimuli_original_animals_birds_4.png	Q	d	75.5882204934023	1	75.5955608640797	75.7955567678437
22175	100	15	0	0	33	15	4	15	0	0	0	stim005_stimuli_original_animals_fish_1.png	Y	0	0	0	75.9955646186136	76.1955697871745
22275	100	16	0	0	33	16	5	7	0	0	0	stim006_stimuli_original_animals_fish_2.png	J	0	0	0	76.3955756877549	76.5955801247619
22375	100	17	0	0	33	17	14	0	0	0	0	stim015_stimuli_original_vehicles_planes_3.png	A	0	0	0	76.7955845622346	76.9955892432481
22475	100	18	0	0	33	18	0	14	0	0	0	stim001_stimuli_original_animals_birds_1.png	V	0	0	0	77.1955944122747	77.3956056763418
22575	100	19	0	0	33	19	7	5	0	0	0	stim008_stimuli_original_animals_fish_4.png	F	0	0	0	77.5956171839498	77.7956182081252
22675	100	20	0	0	33	20	15	4	0	0	0	stim016_stimuli_original_vehicles_planes_4.png	E	0	0	0	77.995633373037	78.1956297643483
22775	100	21	0	0	33	21	10	3	1	0	0	stim011_stimuli_original_vehicles_boats_3.png	D	0	0	0	78.3956281067804	78.5956415650435
22875	100	22	0	0	33	22	1	12	0	0	0	stim002_stimuli_original_animals_birds_2.png	T	0	0	0	78.7956345430575	78.9956531212665
22975	100	23	0	0	33	23	10	1	1	1	1	stim011_stimuli_original_vehicles_boats_3.png	B	0	0	0	79.1956570711918	79.3956734552048
23075	100	24	0	0	33	24	11	13	0	0	0	stim012_stimuli_original_vehicles_boats_4.png	U	0	0	0	79.5956774046645	79.795655510854
23175	100	25	0	0	33	25	12	1	0	1	0	stim013_stimuli_original_vehicles_planes_1.png	B	d	79.9882349753752	1	79.9956850605085	80.1956804767251
23275	100	26	0	0	33	26	6	0	0	0	0	stim007_stimuli_original_animals_fish_3.png	A	0	0	0	80.3956744302996	80.5956939840689
23375	100	27	0	0	33	27	9	9	0	0	0	stim010_stimuli_original_vehicles_boats_2.png	L	0	0	0	80.7956894002855	80.9957052967511
23475	100	28	0	0	33	28	14	1	0	0	0	stim015_stimuli_original_vehicles_planes_3.png	B	0	0	0	81.1957102217712	81.3957161218859
23575	100	29	0	0	33	29	10	10	0	0	0	stim011_stimuli_original_vehicles_boats_3.png	Q	0	0	0	81.595704711508	81.7957074423321
23675	100	30	0	0	33	30	4	15	0	0	0	stim005_stimuli_original_animals_fish_1.png	Y	0	0	0	81.9957291898318	82.1957321646623
23775	100	31	0	0	33	31	13	6	0	0	0	stim014_stimuli_original_vehicles_planes_2.png	G	0	0	0	82.3957351390272	82.5957383573987
23875	100	32	0	0	33	32	5	7	0	0	0	stim006_stimuli_original_animals_fish_2.png	J	0	0	0	82.7957447450608	82.9957513767295
23975	100	33	0	0	33	33	3	8	0	0	0	stim004_stimuli_original_animals_birds_4.png	K	0	0	0	83.1957675167359	83.3957341639325
24075	100	34	0	0	33	34	8	2	0	0	0	stim009_stimuli_original_vehicles_boats_1.png	C	0	0	0	83.5957646886818	83.795773758553
24175	100	35	0	0	33	35	2	11	0	0	0	stim003_stimuli_original_animals_birds_3.png	R	0	0	0	83.9957786831073	84.1957843396813
25408.25	100	36	1	1	13	0	5	10	0	0	0	stim006_stimuli_original_animals_fish_2.png	Q	0	0	0	88.929258692544	89.1292545963079
25508.25	100	37	1	1	13	1	7	15	0	0	0	stim008_stimuli_original_animals_fish_4.png	Y	0	0	0	89.3292453805916	89.529264446348
25608.25	100	38	1	1	13	2	9	11	0	0	0	stim010_stimuli_original_vehicles_boats_2.png	R	0	0	0	89.7292752228677	89.9295341968536
25708.25	100	39	1	1	13	3	15	14	0	0	0	stim016_stimuli_original_vehicles_planes_4.png	V	0	0	0	90.1292840973474	90.3292853650637
25808.25	100	40	1	1	13	4	11	4	0	0	0	stim012_stimuli_original_vehicles_boats_4.png	E	0	0	0	90.5292766368948	90.7292949710973
25908.25	100	41	1	1	13	5	14	1	0	0	0	stim015_stimuli_original_vehicles_planes_3.png	B	0	0	0	90.9293086733669	91.1293116477318
26008.25	100	42	1	1	13	6	15	12	1	0	0	stim016_stimuli_original_vehicles_planes_4.png	T	0	0	0	91.3293119403534	91.5293183280155
26108.25	100	43	1	1	13	7	12	0	0	0	0	stim013_stimuli_original_vehicles_planes_1.png	A	0	0	0	91.7293244721368	91.9293259838596
26208.25	100	44	1	1	13	8	15	8	1	0	0	stim016_stimuli_original_vehicles_planes_4.png	K	0	0	0	92.1293287146837	92.3293287632987
26308.25	100	45	1	1	13	9	13	3	0	0	0	stim014_stimuli_original_vehicles_planes_2.png	D	0	0	0	92.5293356385082	92.7293425141834
26408.25	100	46	1	1	13	10	2	2	0	0	0	stim003_stimuli_original_animals_birds_3.png	C	0	0	0	92.9293498769403	93.1293433429673
26508.25	100	47	1	1	13	11	4	12	0	1	0	stim005_stimuli_original_animals_fish_1.png	T	0	0	0	93.3293507061899	93.5293505112641
26608.25	100	48	1	1	13	12	3	7	0	0	0	stim004_stimuli_original_animals_birds_4.png	J	0	0	0	93.729377866257	93.9293842543848
26708.25	100	49	1	1	13	13	6	12	0	1	1	stim007_stimuli_original_animals_fish_3.png	T	0	0	0	94.1293911295943	94.3293733801693
26808.25	100	50	1	1	13	14	10	6	0	0	0	stim011_stimuli_original_vehicles_boats_3.png	G	0	0	0	94.5293980538845	94.7294015157968
26908.25	100	51	1	1	13	15	8	5	0	0	0	stim009_stimuli_original_vehicles_boats_1.png	F	0	0	0	94.929408391472	95.1294140475802
27008.25	100	52	1	1	13	16	1	9	0	0	0	stim002_stimuli_original_animals_birds_2.png	L	0	0	0	95.3294080011547	95.5294241416268
27108.25	100	53	1	1	13	17	0	13	0	0	0	stim001_stimuli_original_animals_birds_1.png	U	0	0	0	95.7294356492348	95.9294356978498
27208.25	100	54	1	1	13	18	13	0	0	0	0	stim014_stimuli_original_vehicles_planes_2.png	A	0	0	0	96.1294391602278	96.3294367706403
27308.25	100	55	1	1	13	19	9	1	0	0	0	stim010_stimuli_original_vehicles_boats_2.png	B	0	0	0	96.5294524235651	96.7294371123426
27408.5	100	56	1	1	13	20	5	8	0	0	0	stim006_stimuli_original_animals_fish_2.png	K	0	0	0	96.9294622731395	97.1294650039636
27508.5	100	57	1	1	13	21	6	10	0	0	0	stim007_stimuli_original_animals_fish_3.png	Q	0	0	0	97.3294750489295	97.5294741224498
27608.5	100	58	1	1	13	22	12	6	1	0	0	stim013_stimuli_original_vehicles_planes_1.png	G	0	0	0	97.7294905064628	97.9294890924357
27708.5	100	59	1	1	13	23	7	3	0	0	0	stim008_stimuli_original_animals_fish_4.png	D	0	0	0	98.1294949925505	98.3295001611114
27808.5	100	60	1	1	13	24	12	4	1	0	0	stim013_stimuli_original_vehicles_planes_1.png	E	0	0	0	98.5295033794828	98.7295051352121
27908.5	100	61	1	1	13	25	2	2	0	0	0	stim003_stimuli_original_animals_birds_3.png	C	0	0	0	98.929512497969	99.1295262002386
28008.5	100	62	1	1	13	26	3	13	0	0	0	stim004_stimuli_original_animals_birds_4.png	U	0	0	0	99.3295101574622	99.5295321489684
28108.5	100	63	1	1	13	27	8	15	0	1	0	stim009_stimuli_original_vehicles_boats_1.png	Y	0	0	0	99.7295353673398	99.9295415114611
28208.5	100	64	1	1	13	28	0	12	0	0	0	stim001_stimuli_original_animals_birds_1.png	T	0	0	0	100.129545948468	100.329539170954
28308.5	100	65	1	1	13	29	12	15	0	1	1	stim013_stimuli_original_vehicles_planes_1.png	Y	0	0	0	100.529734266922	100.729564624373
28408.5	100	66	1	1	13	30	1	14	0	0	0	stim002_stimuli_original_animals_birds_2.png	V	d	100.922325483523	1	100.929539073259	101.129571304657
28508.5	100	67	1	1	13	31	4	11	0	0	0	stim005_stimuli_original_animals_fish_1.png	R	0	0	0	101.329575010575	101.529566526413
28608.5	100	68	1	1	13	32	14	15	0	0	0	stim015_stimuli_original_vehicles_planes_3.png	Y	0	0	0	101.729572914075	101.929591979831
28708.5	100	69	1	1	13	33	11	9	0	0	0	stim012_stimuli_original_vehicles_boats_4.png	L	0	0	0	102.129598367494	102.329593296628
28808.5	100	70	1	1	13	34	15	7	0	0	0	stim016_stimuli_original_vehicles_planes_4.png	J	0	0	0	102.529624552932	102.729604609311
28908.5	100	71	1	1	13	35	10	5	0	0	0	stim011_stimuli_original_vehicles_boats_3.png	F	0	0	0	102.929613435175	103.129625430331
30066.75	100	72	2	0	1	0	5	10	0	0	0	stim006_stimuli_original_animals_fish_2.png	Q	0	0	0	107.563083984423	107.763085008599
30166.75	100	73	2	0	1	1	2	13	0	0	0	stim003_stimuli_original_animals_birds_3.png	U	0	0	0	107.963073598221	108.163077791687
30266.75	100	74	2	0	1	2	10	14	0	0	0	stim011_stimuli_original_vehicles_boats_3.png	V	0	0	0	108.363104659598	108.563105683308
30366.75	100	75	2	0	1	3	6	1	0	0	0	stim007_stimuli_original_animals_fish_3.png	B	0	0	0	108.763115240727	108.963099929504
30466.75	100	76	2	0	1	4	14	0	0	0	0	stim015_stimuli_original_vehicles_planes_3.png	A	0	0	0	109.163122408558	109.363132453524
30566.75	100	77	2	0	1	5	8	11	0	0	0	stim009_stimuli_original_vehicles_boats_1.png	R	0	0	0	109.563143717591	109.763138890266
30666.75	100	78	2	0	1	6	11	12	1	0	0	stim012_stimuli_original_vehicles_boats_4.png	T	0	0	0	109.963128455449	110.163149227854
30766.75	100	79	2	0	1	7	1	3	0	0	0	stim002_stimuli_original_animals_birds_2.png	D	0	0	0	110.363158785272	110.563140304293
30866.75	100	80	2	0	1	8	11	2	1	0	1	stim012_stimuli_original_vehicles_boats_4.png	C	0	0	0	110.763167903759	110.963149666786
30966.75	100	81	2	0	1	9	3	5	0	0	0	stim004_stimuli_original_animals_birds_4.png	F	d	111.354924365412	1	111.163158980198	111.36318609165
31066.75	100	82	2	0	1	10	4	15	0	0	0	stim005_stimuli_original_animals_fish_1.png	Y	0	0	0	111.563178582583	111.763190334197
31166.75	100	83	2	0	1	11	0	7	0	0	0	stim001_stimuli_original_animals_birds_1.png	J	0	0	0	111.963210375048	112.163203597534
31266.75	100	84	2	0	1	12	9	11	0	1	0	stim010_stimuli_original_vehicles_boats_2.png	R	0	0	0	112.363202427048	112.563203451224
31366.75	100	85	2	0	1	13	13	6	0	0	0	stim014_stimuli_original_vehicles_planes_2.png	G	0	0	0	112.763211545534	112.963212325703
31466.75	100	86	2	0	1	14	7	11	0	1	0	stim008_stimuli_original_animals_fish_4.png	R	0	0	0	113.163223345764	113.363228758331
31566.75	100	87	2	0	1	15	12	9	0	0	0	stim013_stimuli_original_vehicles_planes_1.png	L	0	0	0	113.563231976703	113.763229343574
31666.75	100	88	2	0	1	16	11	8	0	0	0	stim012_stimuli_original_vehicles_boats_4.png	K	0	0	0	113.963240607642	114.163240656257
31766.75	100	89	2	0	1	17	15	4	0	0	0	stim016_stimuli_original_vehicles_planes_4.png	E	0	0	0	114.363251676317	114.563250749838
31867	100	90	2	0	1	18	4	15	0	0	0	stim005_stimuli_original_animals_fish_1.png	Y	0	0	0	114.763499484397	114.963275716174
31966.75	100	91	2	0	1	19	8	11	0	0	0	stim009_stimuli_original_vehicles_boats_1.png	R	0	0	0	115.16328283539	115.363293124363
32066.75	100	92	2	0	1	20	9	12	0	0	0	stim010_stimuli_original_vehicles_boats_2.png	T	0	0	0	115.563296830282	115.76329078339
32166.75	100	93	2	0	1	21	11	7	1	0	0	stim012_stimuli_original_vehicles_boats_4.png	J	0	0	0	115.963275472168	116.16329063708
32266.75	100	94	2	0	1	22	6	13	0	0	0	stim007_stimuli_original_animals_fish_3.png	U	0	0	0	116.3633084842	116.563313896768
32366.75	100	95	2	0	1	23	11	9	1	0	1	stim012_stimuli_original_vehicles_boats_4.png	L	0	0	0	116.763321503531	116.963306436315
32466.75	100	96	2	0	1	24	7	0	0	0	0	stim008_stimuli_original_animals_fish_4.png	A	d	117.155885657296	1	117.163332328666	117.36333505949
32566.75	100	97	2	0	1	25	15	4	0	0	0	stim016_stimuli_original_vehicles_planes_4.png	E	0	0	0	117.56333998451	117.763352711219
32666.75	100	98	2	0	1	26	5	3	0	0	0	stim006_stimuli_original_animals_fish_2.png	D	0	0	0	117.963351297192	118.163339642808
32766.75	100	99	2	0	1	27	2	11	0	1	0	stim003_stimuli_original_animals_birds_3.png	R	0	0	0	118.363363341428	118.563370704185
32866.75	100	100	2	0	1	28	3	1	0	0	0	stim004_stimuli_original_animals_birds_4.png	B	0	0	0	118.763375385664	118.963360074442
32966.75	100	101	2	0	1	29	12	11	0	1	0	stim013_stimuli_original_vehicles_planes_1.png	R	0	0	0	119.163385479245	119.363392110914
33066.75	100	102	2	0	1	30	11	8	0	0	0	stim012_stimuli_original_vehicles_boats_4.png	K	0	0	0	119.563394841272	119.763398059644
33166.75	100	103	2	0	1	31	0	14	0	0	0	stim001_stimuli_original_animals_birds_1.png	V	0	0	0	119.963407129515	120.163803856354
33266.75	100	104	2	0	1	32	1	6	0	0	0	stim002_stimuli_original_animals_birds_2.png	G	0	0	0	120.363415516447	120.563404106069
33366.75	100	105	2	0	1	33	14	10	0	0	0	stim015_stimuli_original_vehicles_planes_3.png	Q	0	0	0	120.763429511338	120.963429072406
33466.75	100	106	2	0	1	34	13	2	0	0	0	stim014_stimuli_original_vehicles_planes_2.png	C	0	0	0	121.163437410723	121.363440385088
33566.75	100	107	2	0	1	35	10	5	0	0	0	stim011_stimuli_original_vehicles_boats_3.png	F	0	0	0	121.563440190163	121.763453891966
35196	100	108	3	1	38	0	5	0	0	0	0	stim006_stimuli_original_animals_fish_2.png	A	0	0	0	128.0802866905	128.280291371513
35296	100	109	3	1	38	1	7	15	0	0	0	stim008_stimuli_original_animals_fish_4.png	Y	0	0	0	128.480298490729	128.680284886155
35396	100	110	3	1	38	2	9	11	0	0	0	stim010_stimuli_original_vehicles_boats_2.png	R	0	0	0	128.880294200033	129.080295955297
35496	100	111	3	1	38	3	12	7	0	0	0	stim013_stimuli_original_vehicles_planes_1.png	J	0	0	0	129.280325017404	129.480324090924
35596	100	112	3	1	38	4	1	3	1	0	0	stim002_stimuli_original_animals_birds_2.png	D	0	0	0	129.680323651992	129.880337354261
35696	100	113	3	1	38	5	0	2	0	0	0	stim001_stimuli_original_animals_birds_1.png	C	0	0	0	130.080341303721	130.28034305945
35796	100	114	3	1	38	6	1	13	1	0	0	stim002_stimuli_original_animals_birds_2.png	U	0	0	0	130.480339207221	130.680336817633
35896.25	100	115	3	1	38	7	4	10	0	0	0	stim005_stimuli_original_animals_fish_1.png	Q	0	0	0	130.880780356005	131.080370317213
35996	100	116	3	1	38	8	13	4	0	0	0	stim014_stimuli_original_vehicles_planes_2.png	E	0	0	0	131.280374266673	131.480383092538
36096	100	117	3	1	38	9	8	14	0	0	0	stim009_stimuli_original_vehicles_boats_1.png	V	0	0	0	131.680382654071	131.880369537044
36196	100	118	3	1	38	10	1	8	0	0	0	stim002_stimuli_original_animals_birds_2.png	K	0	0	0	132.080394698307	132.280395234469
36296	100	119	3	1	38	11	11	6	0	0	0	stim012_stimuli_original_vehicles_boats_4.png	G	0	0	0	132.480407717638	132.680389968213
36396	100	120	3	1	38	12	10	2	0	1	0	stim011_stimuli_original_vehicles_boats_3.png	C	0	0	0	132.880399769172	133.080408107489
36496	100	121	3	1	38	13	3	9	0	0	0	stim004_stimuli_original_animals_birds_4.png	L	0	0	0	133.280429367907	133.480440143961
36596	100	122	3	1	38	14	15	2	0	1	1	stim016_stimuli_original_vehicles_planes_4.png	C	0	0	0	133.680436292198	133.880439997651
36696	100	123	3	1	38	15	6	5	0	0	0	stim007_stimuli_original_animals_fish_3.png	F	0	0	0	134.080446141772	134.280458380934
36796	100	124	3	1	38	16	14	12	0	0	0	stim015_stimuli_original_vehicles_planes_3.png	T	0	0	0	134.480461355764	134.680461404379
36896	100	125	3	1	38	17	2	1	0	0	0	stim003_stimuli_original_animals_birds_3.png	B	0	0	0	134.880475594196	135.08047125442
36996	100	126	3	1	38	18	1	2	0	0	0	stim002_stimuli_original_animals_birds_2.png	C	0	0	0	135.280480080284	135.480485980399
37096	100	127	3	1	38	19	12	14	0	0	0	stim013_stimuli_original_vehicles_planes_1.png	V	0	0	0	135.680499194656	135.880482664332
37196	100	128	3	1	38	20	5	6	0	0	0	stim006_stimuli_original_animals_fish_2.png	G	0	0	0	136.080490759108	136.28072608402
37296	100	129	3	1	38	21	2	15	1	0	0	stim003_stimuli_original_animals_birds_3.png	Y	0	0	0	136.480512555689	136.680517968256
37396	100	130	3	1	38	22	9	3	0	0	0	stim010_stimuli_original_vehicles_boats_2.png	D	0	0	0	136.880520698614	137.080515627749
37496	100	131	3	1	38	23	2	10	1	0	0	stim003_stimuli_original_animals_birds_3.png	Q	0	0	0	137.280530061107	137.480533035472
37596	100	132	3	1	38	24	6	11	0	0	0	stim007_stimuli_original_animals_fish_3.png	R	0	0	0	137.680543080438	137.880544836167
37696	100	133	3	1	38	25	8	1	0	0	0	stim009_stimuli_original_vehicles_boats_1.png	B	0	0	0	138.080550492276	138.280557367951
37796	100	134	3	1	38	26	14	8	0	0	0	stim015_stimuli_original_vehicles_planes_3.png	K	0	0	0	138.480563024059	138.680569655728
37896	100	135	3	1	38	27	4	13	0	0	0	stim005_stimuli_original_animals_fish_1.png	U	0	0	0	138.880574580748	139.08057609247
37996	100	136	3	1	38	28	10	4	0	0	0	stim011_stimuli_original_vehicles_boats_3.png	E	0	0	0	139.280584674329	139.480588624254
38096.25	100	137	3	1	38	29	13	1	0	1	0	stim014_stimuli_original_vehicles_planes_2.png	B	0	0	0	139.680579164531	139.880584577098
38196.25	100	138	3	1	38	30	2	0	0	0	0	stim003_stimuli_original_animals_birds_3.png	A	0	0	0	140.080605349503	140.280614175368
38296.25	100	139	3	1	38	31	3	1	0	1	1	stim004_stimuli_original_animals_birds_4.png	B	0	0	0	140.480619831942	140.680625975598
38396.25	100	140	3	1	38	32	7	12	0	0	0	stim008_stimuli_original_animals_fish_4.png	T	0	0	0	140.880625536665	141.0806146143
38496.25	100	141	3	1	38	33	11	9	0	0	0	stim012_stimuli_original_vehicles_boats_4.png	L	d	141.273177499883	1	141.280640506651	141.480647625867
38596.25	100	142	3	1	38	34	15	7	0	0	0	stim016_stimuli_original_vehicles_planes_4.png	J	0	0	0	141.680662059691	141.880659670103
38696.25	100	143	3	1	38	35	0	5	0	0	0	stim001_stimuli_original_animals_birds_1.png	F	0	0	0	142.080652648583	142.280650503002
39704.5	100	144	4	0	4	0	12	15	0	0	0	stim013_stimuli_original_vehicles_planes_1.png	Y	0	0	0	146.114101108629	146.314104327001
39804.5	100	145	4	0	4	1	10	12	0	0	0	stim011_stimuli_original_vehicles_boats_3.png	T	0	0	0	146.514095842373	146.714114908129
39904.5	100	146	4	0	4	2	0	9	0	0	0	stim001_stimuli_original_animals_birds_1.png	L	0	0	0	146.914123246446	147.11412500171
40004.5	100	147	4	0	4	3	13	7	0	0	0	stim014_stimuli_original_vehicles_planes_2.png	J	0	0	0	147.314148943871	147.5141377775
40104.5	100	148	4	0	4	4	1	2	0	0	0	stim002_stimuli_original_animals_birds_2.png	C	0	0	0	147.714148066472	147.914144945331
40204.5	100	149	4	0	4	5	7	4	0	1	0	stim008_stimuli_original_animals_fish_4.png	E	0	0	0	148.114153283648	148.314140410628
40304.5	100	150	4	0	4	6	5	3	1	0	0	stim006_stimuli_original_animals_fish_2.png	D	0	0	0	148.514188246336	148.714170252904
40404.5	100	151	4	0	4	7	2	4	0	1	0	stim003_stimuli_original_animals_birds_3.png	E	0	0	0	148.914176884573	149.114178152289
40504.5	100	152	4	0	4	8	5	0	1	0	1	stim006_stimuli_original_animals_fish_2.png	A	0	0	0	149.314188197255	149.514170204289
40604.5	100	153	4	0	4	9	4	1	0	0	0	stim005_stimuli_original_animals_fish_1.png	B	0	0	0	149.7141970722	149.91421272466
40704.5	100	154	4	0	4	10	6	14	0	0	0	stim007_stimuli_original_animals_fish_3.png	V	0	0	0	150.114217162132	150.314209896605
40804.5	100	155	4	0	4	11	9	8	0	0	0	stim010_stimuli_original_vehicles_boats_2.png	K	0	0	0	150.514217259362	150.714221696835
40904.5	100	156	4	0	4	12	15	10	0	0	0	stim016_stimuli_original_vehicles_planes_4.png	Q	0	0	0	150.914228328504	151.114220575429
41004.5	100	157	4	0	4	13	11	5	0	0	0	stim012_stimuli_original_vehicles_boats_4.png	F	0	0	0	151.314238422085	151.514225792605
41104.5	100	158	4	0	4	14	14	13	0	0	0	stim015_stimuli_original_vehicles_planes_3.png	U	0	0	0	151.714249734767	151.914255391341
41204.5	100	159	4	0	4	15	3	6	0	0	0	stim004_stimuli_original_animals_birds_4.png	G	0	0	0	152.114266655408	152.314262315631
41304.5	100	160	4	0	4	16	8	11	0	0	0	stim009_stimuli_original_vehicles_boats_1.png	R	0	0	0	152.514256512746	152.714272165205
41404.5	100	161	4	0	4	17	5	4	0	0	0	stim006_stimuli_original_animals_fish_2.png	E	0	0	0	152.914283185732	153.11428299034
41504.5	100	162	4	0	4	18	4	5	0	0	0	stim005_stimuli_original_animals_fish_1.png	F	0	0	0	153.314291328657	153.514292596374
41604.5	100	163	4	0	4	19	11	8	0	0	0	stim012_stimuli_original_vehicles_boats_4.png	K	0	0	0	153.714298252948	153.914308541454
41704.5	100	164	4	0	4	20	6	3	0	0	0	stim007_stimuli_original_animals_fish_3.png	D	0	0	0	154.114310297184	154.314290353563
41804.5	100	165	4	0	4	21	13	14	0	0	0	stim014_stimuli_original_vehicles_planes_2.png	V	0	0	0	154.514331118669	154.714332873933
41904.5	100	166	4	0	4	22	5	11	0	0	0	stim006_stimuli_original_animals_fish_2.png	R	0	0	0	154.914339993149	155.114343699068
42004.75	100	167	4	0	4	23	10	15	0	0	0	stim011_stimuli_original_vehicles_boats_3.png	Y	0	0	0	155.31480820477	155.514359644148
42104.5	100	168	4	0	4	24	8	9	0	0	0	stim009_stimuli_original_vehicles_boats_1.png	L	0	0	0	155.714339456521	155.91434608819
42204.5	100	169	4	0	4	25	14	6	0	0	0	stim015_stimuli_original_vehicles_planes_3.png	G	0	0	0	156.114347599912	156.314389340114
42304.5	100	170	4	0	4	26	1	4	0	0	0	stim002_stimuli_original_animals_birds_2.png	E	0	0	0	156.514382318594	156.714369445108
42404.5	100	171	4	0	4	27	0	5	0	1	0	stim001_stimuli_original_animals_birds_1.png	F	0	0	0	156.914392412174	157.114389779046
42504.5	100	172	4	0	4	28	4	2	1	0	0	stim005_stimuli_original_animals_fish_1.png	C	0	0	0	157.314383488614	157.51438475633
42604.5	100	173	4	0	4	29	3	5	0	1	0	stim004_stimuli_original_animals_birds_4.png	F	0	0	0	157.714409917593	157.91441216087
42704.5	100	174	4	0	4	30	4	7	1	0	1	stim005_stimuli_original_animals_fish_1.png	J	0	0	0	158.114422205836	158.314405675512
42804.5	100	175	4	0	4	31	2	1	0	0	0	stim003_stimuli_original_animals_birds_3.png	B	d	158.706189150922	1	158.514424985275	158.714432348032
42904.5	100	176	4	0	4	32	7	13	0	0	0	stim008_stimuli_original_animals_fish_4.png	U	0	0	0	158.91444190545	159.114428300876
43004.5	100	177	4	0	4	33	9	0	0	0	0	stim010_stimuli_original_vehicles_boats_2.png	A	0	0	0	159.314459801186	159.514455948956
43104.5	100	178	4	0	4	34	12	10	0	0	0	stim013_stimuli_original_vehicles_planes_1.png	Q	0	0	0	159.714446489234	159.914464823436
43204.5	100	179	4	0	4	35	15	12	0	0	0	stim016_stimuli_original_vehicles_planes_4.png	T	0	0	0	160.11447340576	160.314481256064
45875.5	100	180	5	1	19	0	1	10	0	0	0	stim002_stimuli_original_animals_birds_2.png	Q	0	0	0	170.798070930876	170.998069029301
45975.5	100	181	5	1	19	1	4	9	0	0	0	stim005_stimuli_original_animals_fish_1.png	L	0	0	0	171.198101260699	171.398104966618
46075.5	100	182	5	1	19	2	12	15	0	0	0	stim013_stimuli_original_vehicles_planes_1.png	Y	0	0	0	171.598115011584	171.798118229955
46175.5	100	183	5	1	19	3	6	8	0	0	0	stim007_stimuli_original_animals_fish_3.png	K	0	0	0	171.998108526226	172.198125397786
46275.5	100	184	5	1	19	4	5	6	0	0	0	stim006_stimuli_original_animals_fish_2.png	G	0	0	0	172.398132029455	172.598136710469
46375.5	100	185	5	1	19	5	15	14	0	0	0	stim016_stimuli_original_vehicles_planes_4.png	V	0	0	0	172.798146511894	172.998164846096
46475.5	100	186	5	1	19	6	7	11	0	0	0	stim008_stimuli_original_animals_fish_4.png	R	0	0	0	173.198153192177	173.3981300788
46575.5	100	187	5	1	19	7	10	1	0	0	0	stim011_stimuli_original_vehicles_boats_3.png	B	0	0	0	173.598147194367	173.798145536333
46675.5	100	188	5	1	19	8	9	0	0	0	0	stim010_stimuli_original_vehicles_boats_2.png	A	0	0	0	173.998175329994	174.198180986568
46775.5	100	189	5	1	19	9	5	13	1	0	0	stim006_stimuli_original_animals_fish_2.png	U	0	0	0	174.398176890332	174.598191080149
46875.5	100	190	5	1	19	10	0	2	0	0	0	stim001_stimuli_original_animals_birds_1.png	C	0	0	0	174.798199906014	174.998200198635
46975.5	100	191	5	1	19	11	5	3	1	0	0	stim006_stimuli_original_animals_fish_2.png	D	0	0	0	175.198213900905	175.398215412162
47075.5	100	192	5	1	19	12	13	8	0	1	0	stim014_stimuli_original_vehicles_planes_2.png	K	0	0	0	175.598223262932	175.798363989685
47175.5	100	193	5	1	19	13	14	7	0	0	0	stim015_stimuli_original_vehicles_planes_3.png	J	0	0	0	175.998218728229	176.198236574885
47275.5	100	194	5	1	19	14	3	8	0	1	1	stim004_stimuli_original_animals_birds_4.png	K	0	0	0	176.398231503554	176.598252519965
47375.5	100	195	5	1	19	15	11	12	0	0	0	stim012_stimuli_original_vehicles_boats_4.png	T	0	0	0	176.798257201444	176.998256274965
47475.5	100	196	5	1	19	16	2	4	0	0	0	stim003_stimuli_original_animals_birds_3.png	E	0	0	0	177.19826924568	177.398251496255
47575.5	100	197	5	1	19	17	8	5	0	0	0	stim009_stimuli_original_vehicles_boats_1.png	F	0	0	0	177.598265198059	177.798265734687
47675.5	100	198	5	1	19	18	5	8	0	0	0	stim006_stimuli_original_animals_fish_2.png	K	0	0	0	177.998292114586	178.198291188106
47775.5	100	199	5	1	19	19	4	2	0	0	0	stim005_stimuli_original_animals_fish_1.png	C	0	0	0	178.398282947484	178.598309083842
47875.5	100	200	5	1	19	20	12	11	0	0	0	stim013_stimuli_original_vehicles_planes_1.png	R	0	0	0	178.798289627768	178.998306987341
47975.5	100	201	5	1	19	21	8	3	1	0	0	stim009_stimuli_original_vehicles_boats_1.png	D	0	0	0	179.198319226503	179.398321956862
48075.5	100	202	5	1	19	22	7	14	0	0	0	stim008_stimuli_original_animals_fish_4.png	V	0	0	0	179.59832858853	179.79833327001
48175.5	100	203	5	1	19	23	8	13	1	0	0	stim009_stimuli_original_vehicles_boats_1.png	U	0	0	0	179.998340632766	180.198344582692
48275.5	100	204	5	1	19	24	3	5	0	1	0	stim004_stimuli_original_animals_birds_4.png	F	0	0	0	180.39833536651	180.59835516382
48375.5	100	205	5	1	19	25	2	0	0	0	0	stim003_stimuli_original_animals_birds_3.png	A	0	0	0	180.798363502137	180.99835599307
48475.5	100	206	5	1	19	26	13	5	0	1	1	stim014_stimuli_original_vehicles_planes_2.png	F	0	0	0	181.198368475772	181.398372669239
48575.5	100	207	5	1	19	27	0	9	0	0	0	stim001_stimuli_original_animals_birds_1.png	L	0	0	0	181.598373449408	181.798377155326
48675.5	100	208	5	1	19	28	1	10	0	0	0	stim002_stimuli_original_animals_birds_2.png	Q	0	0	0	181.9983886634	182.198391637765
48775.5	100	209	5	1	19	29	11	7	0	0	0	stim012_stimuli_original_vehicles_boats_4.png	J	0	0	0	182.39839753788	182.598399781156
48875.5	100	210	5	1	19	30	14	15	0	0	0	stim015_stimuli_original_vehicles_planes_3.png	Y	0	0	0	182.798409582116	182.998410849832
48975.5	100	211	5	1	19	31	6	5	0	0	0	stim007_stimuli_original_animals_fish_3.png	F	0	0	0	183.198418700602	183.398419724777
49075.5	100	212	5	1	19	32	8	6	0	0	0	stim009_stimuli_original_vehicles_boats_1.png	G	0	0	0	183.598447567783	183.798431525007
49175.5	100	213	5	1	19	33	15	12	0	0	0	stim016_stimuli_original_vehicles_planes_4.png	T	0	0	0	183.998440350872	184.198442594148
49275.5	100	214	5	1	19	34	9	4	0	0	0	stim010_stimuli_original_vehicles_boats_2.png	E	0	0	0	184.398447762709	184.598454881925
49375.5	100	215	5	1	19	35	10	1	0	0	0	stim011_stimuli_original_vehicles_boats_3.png	B	0	0	0	184.798462488689	184.998479116708
50225.5	100	216	6	0	31	0	8	7	0	0	0	stim009_stimuli_original_vehicles_boats_1.png	J	0	0	0	188.198550845496	188.398553332314
50325.5	100	217	6	0	31	1	7	14	0	0	0	stim008_stimuli_original_animals_fish_4.png	V	0	0	0	188.59856045153	188.798590976279
50425.5	100	218	6	0	31	2	10	13	0	0	0	stim011_stimuli_original_vehicles_boats_3.png	U	0	0	0	188.998576884158	189.198575957678
50525.5	100	219	6	0	31	3	9	10	0	0	0	stim010_stimuli_original_vehicles_boats_2.png	Q	0	0	0	189.398586002644	189.598584344611
50625.5	100	220	6	0	31	4	1	8	1	0	0	stim002_stimuli_original_animals_birds_2.png	K	0	0	0	189.798594877124	189.998599314597
50725.5	100	221	6	0	31	5	11	15	0	0	0	stim012_stimuli_original_vehicles_boats_4.png	Y	0	0	0	190.198605458718	190.398605263792
50825.5	100	222	6	0	31	6	1	4	1	0	1	stim002_stimuli_original_animals_birds_2.png	E	0	0	0	190.598623110447	190.798629742116
50925.5	100	223	6	0	31	7	5	9	0	0	0	stim006_stimuli_original_animals_fish_2.png	L	0	0	0	190.998633448035	191.198587904219
51025.5	100	224	6	0	31	8	12	12	0	0	0	stim013_stimuli_original_vehicles_planes_1.png	T	0	0	0	191.398646467365	191.598632862791
51125.5	100	225	6	0	31	9	4	2	0	0	0	stim005_stimuli_original_animals_fish_1.png	C	0	0	0	191.798654123209	191.998656610027
51225.5	100	226	6	0	31	10	1	5	0	1	0	stim002_stimuli_original_animals_birds_2.png	F	0	0	0	192.198665435892	192.398665972054
51325.5	100	227	6	0	31	11	3	6	0	0	0	stim004_stimuli_original_animals_birds_4.png	G	0	0	0	192.598658462986	192.79868386779
51425.5	100	228	6	0	31	12	6	5	0	1	0	stim007_stimuli_original_animals_fish_3.png	F	0	0	0	192.998690987006	193.198690060526
51525.5	100	229	6	0	31	13	0	11	0	0	0	stim001_stimuli_original_animals_birds_1.png	R	0	0	0	193.398698154837	193.598699910566
51625.5	100	230	6	0	31	14	15	3	0	0	0	stim016_stimuli_original_vehicles_planes_4.png	D	0	0	0	193.798709955532	193.998718293849
51725.75	100	231	6	0	31	15	2	0	0	0	0	stim003_stimuli_original_animals_birds_3.png	A	0	0	0	194.19916280685	194.398726436775
51825.5	100	232	6	0	31	16	14	5	0	0	0	stim015_stimuli_original_vehicles_planes_3.png	F	0	0	0	194.598728680052	194.798727022018
51925.5	100	233	6	0	31	17	13	1	0	0	0	stim014_stimuli_original_vehicles_planes_2.png	B	0	0	0	194.998743162025	195.198725169059
52025.5	100	234	6	0	31	18	1	13	0	0	0	stim002_stimuli_original_animals_birds_2.png	U	0	0	0	195.398730094079	195.598736725748
52125.5	100	235	6	0	31	19	5	14	0	0	0	stim006_stimuli_original_animals_fish_2.png	V	0	0	0	195.798759448808	195.998764861375
52225.75	100	236	6	0	31	20	0	2	0	0	0	stim001_stimuli_original_animals_birds_1.png	C	0	0	0	196.198770029936	196.398776905611
52325.75	100	237	6	0	31	21	3	15	0	0	0	stim004_stimuli_original_animals_birds_4.png	Y	0	0	0	196.598766714334	196.798767738044
52425.75	100	238	6	0	31	22	11	0	0	0	0	stim012_stimuli_original_vehicles_boats_4.png	A	0	0	0	196.998795093503	197.198797092773
52525.75	100	239	6	0	31	23	5	6	1	0	0	stim006_stimuli_original_animals_fish_2.png	G	0	0	0	197.398811526597	197.598790607415
52625.75	100	240	6	0	31	24	6	3	0	0	0	stim007_stimuli_original_animals_fish_3.png	D	0	0	0	197.798813330475	197.998819474597
52725.75	100	241	6	0	31	25	5	1	1	0	1	stim006_stimuli_original_animals_fish_2.png	B	0	0	0	198.198831957765	198.398828105535
52825.75	100	242	6	0	31	26	2	4	0	0	0	stim003_stimuli_original_animals_birds_3.png	E	0	0	0	198.598818889353	198.798838686664
52925.75	100	243	6	0	31	27	12	12	0	0	0	stim013_stimuli_original_vehicles_planes_1.png	T	d	198.991368170828	1	198.998849463183	199.198854631744
53025.75	100	244	6	0	31	28	9	5	0	0	0	stim010_stimuli_original_vehicles_boats_2.png	F	0	0	0	199.398841515183	199.599312115926
53125.75	100	245	6	0	31	29	4	1	0	1	0	stim005_stimuli_original_animals_fish_1.png	B	0	0	0	199.798852583859	199.998875306919
53225.75	100	246	6	0	31	30	15	11	0	0	0	stim016_stimuli_original_vehicles_planes_4.png	R	0	0	0	200.198880231939	200.398881256115
53325.75	100	247	6	0	31	31	8	1	0	1	0	stim009_stimuli_original_vehicles_boats_1.png	B	0	0	0	200.598887643777	200.798893543892
53425.75	100	248	6	0	31	32	10	9	0	0	0	stim011_stimuli_original_vehicles_boats_3.png	L	0	0	0	200.998903588858	201.198906563222
53525.75	100	249	6	0	31	33	13	10	0	0	0	stim014_stimuli_original_vehicles_planes_2.png	Q	0	0	0	201.398907830939	201.598914706614
53625.75	100	250	6	0	31	34	14	7	0	0	0	stim015_stimuli_original_vehicles_planes_3.png	J	0	0	0	201.798922313377	201.998927725945
53725.75	100	251	6	0	31	35	7	8	0	0	0	stim008_stimuli_original_animals_fish_4.png	K	0	0	0	202.198934845161	202.398935137782
56371.5	100	252	7	1	27	0	8	13	0	0	0	stim009_stimuli_original_vehicles_boats_1.png	U	0	0	0	212.782542707864	212.982547388878
56471.5	100	253	7	1	27	1	1	11	0	0	0	stim002_stimuli_original_animals_birds_2.png	R	0	0	0	213.182574256789	213.382557482924
56571.5	100	254	7	1	27	2	14	15	0	0	0	stim015_stimuli_original_vehicles_planes_3.png	Y	0	0	0	213.582565333694	213.782550510019
56671.5	100	255	7	1	27	3	13	1	0	0	0	stim014_stimuli_original_vehicles_planes_2.png	B	0	0	0	213.982557629235	214.182574500795
56771.5	100	256	7	1	27	4	12	0	1	0	0	stim013_stimuli_original_vehicles_planes_1.png	A	0	0	0	214.382584789302	214.582856685854
56871.5	100	257	7	1	27	5	5	12	0	0	0	stim006_stimuli_original_animals_fish_2.png	T	0	0	0	214.782623165287	214.982600539457
56971.5	100	258	7	1	27	6	12	5	1	0	0	stim013_stimuli_original_vehicles_planes_1.png	F	0	0	0	215.182609121781	215.382610145491
57071.5	100	259	7	1	27	7	6	8	0	0	0	stim007_stimuli_original_animals_fish_3.png	K	0	0	0	215.582620434463	215.782607317436
57171.5	100	260	7	1	27	8	10	3	0	0	0	stim011_stimuli_original_vehicles_boats_3.png	D	0	0	0	215.982631991152	216.182642036118
57271.5	100	261	7	1	27	9	2	7	0	0	0	stim003_stimuli_original_animals_birds_3.png	J	0	0	0	216.382639890537	216.582626041956
57371.5	100	262	7	1	27	10	7	14	0	0	0	stim008_stimuli_original_animals_fish_4.png	V	0	0	0	216.782631454524	216.982652227394
57471.5	100	263	7	1	27	11	12	10	0	0	0	stim013_stimuli_original_vehicles_planes_1.png	Q	0	0	0	217.182664466556	217.382662564516
57571.5	100	264	7	1	27	12	9	5	0	1	0	stim010_stimuli_original_vehicles_boats_2.png	F	0	0	0	217.582658224739	217.782659492455
57671.5	100	265	7	1	27	13	4	9	0	0	0	stim005_stimuli_original_animals_fish_1.png	L	0	0	0	217.982681971975	218.182686165441
57771.5	100	266	7	1	27	14	15	5	0	1	1	stim016_stimuli_original_vehicles_planes_4.png	F	0	0	0	218.382692797109	218.582705767825
57871.5	100	267	7	1	27	15	0	6	0	0	0	stim001_stimuli_original_animals_birds_1.png	G	0	0	0	218.782701671589	218.982693430968
57971.5	100	268	7	1	27	16	3	2	0	0	0	stim004_stimuli_original_animals_birds_4.png	C	d	219.175348232966	1	219.182698843535	219.382719128393
58071.5	100	269	7	1	27	17	11	4	0	0	0	stim012_stimuli_original_vehicles_boats_4.png	E	0	0	0	219.582717470359	219.782725321129
58171.5	100	270	7	1	27	18	4	11	0	0	0	stim005_stimuli_original_animals_fish_1.png	R	0	0	0	219.982740486041	220.182740535121
58271.5	100	271	7	1	27	19	2	3	0	0	0	stim003_stimuli_original_animals_birds_3.png	D	0	0	0	220.382744484581	220.5827481905
58371.5	100	272	7	1	27	20	6	0	0	0	0	stim007_stimuli_original_animals_fish_3.png	A	0	0	0	220.782754822168	220.982757308986
58471.5	100	273	7	1	27	21	5	15	1	0	0	stim006_stimuli_original_animals_fish_2.png	Y	0	0	0	221.182750775013	221.382771303877
58571.5	100	274	7	1	27	22	9	4	0	0	0	stim010_stimuli_original_vehicles_boats_2.png	E	0	0	0	221.582780129742	221.782762623858
58671.5	100	275	7	1	27	23	5	9	1	0	0	stim006_stimuli_original_animals_fish_2.png	L	0	0	0	221.982774375472	222.182772473898
58771.5	100	276	7	1	27	24	10	12	0	0	0	stim011_stimuli_original_vehicles_boats_3.png	T	0	0	0	222.382808850147	222.58280451037
58871.5	100	277	7	1	27	25	14	7	0	0	0	stim015_stimuli_original_vehicles_planes_3.png	J	0	0	0	222.782813092694	222.982794855721
58971.5	100	278	7	1	27	26	7	2	0	0	0	stim008_stimuli_original_animals_fish_4.png	C	0	0	0	223.182819041423	223.382822503801
59071.5	100	279	7	1	27	27	3	10	0	0	0	stim004_stimuli_original_animals_birds_4.png	Q	0	0	0	223.582829379011	223.782843812834
59171.5	100	280	7	1	27	28	8	6	0	0	0	stim009_stimuli_original_vehicles_boats_1.png	G	0	0	0	223.982839229051	224.182845373172
59271.75	100	281	7	1	27	29	5	12	0	1	0	stim006_stimuli_original_animals_fish_2.png	T	0	0	0	224.382854686584	224.582829866558
59371.75	100	282	7	1	27	30	12	5	0	0	0	stim013_stimuli_original_vehicles_planes_1.png	F	0	0	0	224.782833328936	224.982834840659
59471.75	100	283	7	1	27	31	0	12	0	1	1	stim001_stimuli_original_animals_birds_1.png	T	0	0	0	225.18308089301	225.382867608219
59571.75	100	284	7	1	27	32	1	13	0	0	0	stim002_stimuli_original_animals_birds_2.png	U	0	0	0	225.582857904956	225.7828894048
59671.75	100	285	7	1	27	33	15	14	0	0	0	stim016_stimuli_original_vehicles_planes_4.png	V	0	0	0	225.982877994888	226.182897060644
59771.75	100	286	7	1	27	34	11	1	0	0	0	stim012_stimuli_original_vehicles_boats_4.png	B	d	226.574672978371	1	226.382906374056	226.582901546732
59871.75	100	287	7	1	27	35	13	8	0	0	0	stim014_stimuli_original_vehicles_planes_2.png	K	0	0	0	226.782907934394	226.982907495461
61805	100	288	8	0	26	0	2	13	0	0	0	stim003_stimuli_original_animals_birds_3.png	U	0	0	0	234.516455674078	234.716457185335
61905	100	289	8	0	26	1	0	9	0	0	0	stim001_stimuli_original_animals_birds_1.png	L	0	0	0	234.9164660112	235.116470692679
62005	100	290	8	0	26	2	11	15	0	0	0	stim012_stimuli_original_vehicles_boats_4.png	Y	0	0	0	235.316484394483	235.516486881301
62105	100	291	8	0	26	3	3	11	0	0	0	stim004_stimuli_original_animals_birds_4.png	R	0	0	0	235.716492050327	235.916489417199
62205	100	292	8	0	26	4	4	14	0	0	0	stim005_stimuli_original_animals_fish_1.png	V	0	0	0	236.116498730611	236.316499998327
62305	100	293	8	0	26	5	13	0	0	0	0	stim014_stimuli_original_vehicles_planes_2.png	A	0	0	0	236.516508093104	236.716499120463
62405	100	294	8	0	26	6	3	10	1	1	0	stim004_stimuli_original_animals_birds_4.png	Q	0	0	0	236.916506240144	237.116520185955
62505.25	100	295	8	0	26	7	14	8	0	0	0	stim015_stimuli_original_vehicles_planes_3.png	K	0	0	0	237.316968112718	237.516540275887
62605	100	296	8	0	26	8	3	10	1	1	1	stim004_stimuli_original_animals_birds_4.png	Q	0	0	0	237.716543250252	237.916541592218
62705	100	297	8	0	26	9	15	6	0	0	0	stim016_stimuli_original_vehicles_planes_4.png	G	d	238.308317997493	1	238.116550418083	238.316558024846
62805	100	298	8	0	26	10	10	12	0	0	0	stim011_stimuli_original_vehicles_boats_3.png	T	0	0	0	238.516565388069	238.716568849981
62905	100	299	8	0	26	11	5	10	0	0	0	stim006_stimuli_original_animals_fish_2.png	Q	0	0	0	238.916541104671	239.116573336069
63005	100	300	8	0	26	12	1	4	0	0	0	stim002_stimuli_original_animals_birds_2.png	E	0	0	0	239.316590451635	239.516589281615
63105	100	301	8	0	26	13	7	5	0	0	0	stim008_stimuli_original_animals_fish_4.png	F	0	0	0	239.71659225598	239.916607664432
63205	100	302	8	0	26	14	8	1	0	0	0	stim009_stimuli_original_vehicles_boats_1.png	B	0	0	0	240.116603568662	240.316606787033
63305	100	303	8	0	26	15	6	3	0	0	0	stim007_stimuli_original_animals_fish_3.png	D	0	0	0	240.516616587993	240.716618099716
63405	100	304	8	0	26	16	9	2	0	0	0	stim010_stimuli_original_vehicles_boats_2.png	C	0	0	0	240.916608395986	241.116629412398
63505	100	305	8	0	26	17	12	7	0	0	0	stim013_stimuli_original_vehicles_planes_1.png	J	0	0	0	241.31664555287	241.516642919276
63605	100	306	8	0	26	18	7	12	0	0	0	stim008_stimuli_original_animals_fish_4.png	T	0	0	0	241.71664857585	241.916652037762
63705	100	307	8	0	26	19	2	9	0	0	0	stim003_stimuli_original_animals_birds_3.png	L	0	0	0	242.116661595181	242.316662619356
63805	100	308	8	0	26	20	3	6	0	0	0	stim004_stimuli_original_animals_birds_4.png	G	0	0	0	242.516671201214	242.716881413944
63905	100	309	8	0	26	21	1	8	0	0	0	stim002_stimuli_original_animals_birds_2.png	K	0	0	0	242.916667154059	243.116665740032
64005	100	310	8	0	26	22	5	7	0	0	0	stim006_stimuli_original_animals_fish_2.png	J	0	0	0	243.316693339497	243.516696557403
64105	100	311	8	0	26	23	4	1	0	0	0	stim005_stimuli_original_animals_fish_1.png	B	0	0	0	243.716705139726	243.916702262592
64205	100	312	8	0	26	24	10	5	0	0	0	stim011_stimuli_original_vehicles_boats_3.png	F	0	0	0	244.116712307557	244.316717964131
64305	100	313	8	0	26	25	12	10	0	0	0	stim013_stimuli_original_vehicles_planes_1.png	Q	0	0	0	244.516719963402	244.716725375969
64405	100	314	8	0	26	26	6	15	0	0	0	stim007_stimuli_original_animals_fish_3.png	Y	0	0	0	244.916715428233	245.116718403064
64505	100	315	8	0	26	27	10	3	1	1	0	stim011_stimuli_original_vehicles_boats_3.png	D	0	0	0	245.316744539421	245.51674434403
64605	100	316	8	0	26	28	8	14	0	0	0	stim009_stimuli_original_vehicles_boats_1.png	V	0	0	0	245.716752926353	245.916755413171
64705	100	317	8	0	26	29	10	3	1	1	1	stim011_stimuli_original_vehicles_boats_3.png	D	0	0	0	246.116763263941	246.3167672134
64805	100	318	8	0	26	30	0	13	0	0	0	stim001_stimuli_original_animals_birds_1.png	U	d	246.509324979503	1	246.516778965015	246.716760728043
64905	100	319	8	0	26	31	14	4	0	0	0	stim015_stimuli_original_vehicles_planes_3.png	E	0	0	0	246.916784426663	247.116788376123
65005	100	320	8	0	26	32	11	3	0	0	0	stim012_stimuli_original_vehicles_boats_4.png	D	0	0	0	247.316780135501	247.516797007062
65105	100	321	8	0	26	33	15	11	0	0	0	stim016_stimuli_original_vehicles_planes_4.png	R	0	0	0	247.716807052027	247.916810026392
65205	100	322	8	0	26	34	9	0	0	0	0	stim010_stimuli_original_vehicles_boats_2.png	A	0	0	0	248.116822509561	248.316824264824
65305	100	323	8	0	26	35	13	2	0	0	0	stim014_stimuli_original_vehicles_planes_2.png	C	0	0	0	248.516830896493	248.716831676662
67363.5	100	324	9	1	16	0	1	5	0	0	0	stim002_stimuli_original_animals_birds_2.png	F	0	0	0	256.750382537022	256.950384048279
67463.5	100	325	9	1	16	1	2	9	0	0	0	stim003_stimuli_original_animals_birds_3.png	L	0	0	0	257.150393605698	257.350385365076
67563.5	100	326	9	1	16	2	6	1	0	0	0	stim007_stimuli_original_animals_fish_3.png	B	0	0	0	257.550388826989	257.750405942556
67663.5	100	327	9	1	16	3	15	6	0	0	0	stim016_stimuli_original_vehicles_planes_4.png	G	0	0	0	257.950412818231	258.150399701204
67763.5	100	328	9	1	16	4	8	14	0	0	0	stim009_stimuli_original_vehicles_boats_1.png	V	0	0	0	258.350423155352	258.550425154623
67863.5	100	329	9	1	16	5	5	0	0	1	0	stim006_stimuli_original_animals_fish_2.png	A	0	0	0	258.750440563541	258.950437930413
67963.5	100	330	9	1	16	6	11	3	0	0	0	stim012_stimuli_original_vehicles_boats_4.png	D	0	0	0	259.150429689791	259.350459239446
68063.5	100	331	9	1	16	7	13	0	0	1	1	stim014_stimuli_original_vehicles_planes_2.png	A	0	0	0	259.550458800513	259.750467138831
68163.5	100	332	9	1	16	8	4	12	0	0	0	stim005_stimuli_original_animals_fish_1.png	T	0	0	0	259.950473038945	260.150468455162
68263.5	100	333	9	1	16	9	7	7	0	0	0	stim008_stimuli_original_animals_fish_4.png	J	d	260.343029634561	1	260.350476062391	260.550479036756
68363.5	100	334	9	1	16	10	13	13	1	0	0	stim014_stimuli_original_vehicles_planes_2.png	U	0	0	0	260.750492982566	260.950480353087
68463.5	100	335	9	1	16	11	10	0	0	0	0	stim011_stimuli_original_vehicles_boats_3.png	A	0	0	0	261.15048186481	261.350486302283
68563.5	100	336	9	1	16	12	13	15	1	0	0	stim014_stimuli_original_vehicles_planes_2.png	Y	0	0	0	261.550496347249	261.750501028262
68663.5	100	337	9	1	16	13	12	2	0	0	0	stim013_stimuli_original_vehicles_planes_1.png	C	0	0	0	261.95052131312	262.150527457241
68763.5	100	338	9	1	16	14	14	8	0	0	0	stim015_stimuli_original_vehicles_planes_3.png	K	0	0	0	262.350529456511	262.550532918423
68863.5	100	339	9	1	16	15	9	11	0	0	0	stim010_stimuli_original_vehicles_boats_2.png	R	0	0	0	262.750540769193	262.950544962659
68963.5	100	340	9	1	16	16	0	10	0	0	0	stim001_stimuli_original_animals_birds_1.png	Q	0	0	0	263.15053525893	263.350554325152
69063.5	100	341	9	1	16	17	3	4	0	0	0	stim004_stimuli_original_animals_birds_4.png	E	0	0	0	263.550561200362	263.75057075778
69163.5	100	342	9	1	16	18	4	3	0	0	0	stim005_stimuli_original_animals_fish_1.png	D	0	0	0	263.95057763299	264.150575731415
69263.5	100	343	9	1	16	19	10	0	0	0	0	stim011_stimuli_original_vehicles_boats_3.png	A	0	0	0	264.350584313739	264.550585093908
69363.5	100	344	9	1	16	20	11	9	0	0	0	stim012_stimuli_original_vehicles_boats_4.png	L	0	0	0	264.750583679881	264.950600551441
69463.5	100	345	9	1	16	21	8	14	0	0	0	stim009_stimuli_original_vehicles_boats_1.png	V	0	0	0	265.150606939103	265.350575536489
69563.5	100	346	9	1	16	22	2	12	0	0	0	stim003_stimuli_original_animals_birds_3.png	T	0	0	0	265.550616301131	265.750622932799
69663.75	100	347	9	1	16	23	15	13	0	1	0	stim016_stimuli_original_vehicles_planes_4.png	U	0	0	0	265.950975773856	266.150635221042
69763.5	100	348	9	1	16	24	0	10	0	0	0	stim001_stimuli_original_animals_birds_1.png	Q	0	0	0	266.350624785759	266.550641413778
69863.5	100	349	9	1	16	25	13	13	0	1	1	stim014_stimuli_original_vehicles_planes_2.png	U	0	0	0	266.750630734954	266.950654433109
69963.5	100	350	9	1	16	26	7	7	0	0	0	stim008_stimuli_original_animals_fish_4.png	J	d	267.342426449992	1	267.150660333224	267.350662332494
70063.5	100	351	9	1	16	27	12	4	0	0	0	stim013_stimuli_original_vehicles_planes_1.png	E	0	0	0	267.550667745061	267.750670231879
70163.5	100	352	9	1	16	28	0	13	1	0	0	stim001_stimuli_original_animals_birds_1.png	U	0	0	0	267.950672718696	268.150679350365
70263.5	100	353	9	1	16	29	3	11	0	0	0	stim004_stimuli_original_animals_birds_4.png	R	0	0	0	268.350685982034	268.550688468851
70363.5	100	354	9	1	16	30	0	5	1	0	0	stim001_stimuli_original_animals_birds_1.png	F	0	0	0	268.750690955669	268.950694418047
70463.5	100	355	9	1	16	31	14	8	0	0	0	stim015_stimuli_original_vehicles_planes_3.png	K	0	0	0	269.150701780804	269.350714263972
70563.5	100	356	9	1	16	32	6	15	0	0	0	stim007_stimuli_original_animals_fish_3.png	Y	0	0	0	269.550706266891	269.750724357553
70663.5	100	357	9	1	16	33	1	6	0	0	0	stim002_stimuli_original_animals_birds_2.png	G	0	0	0	269.950742692221	270.150738595985
70763.5	100	358	9	1	16	34	9	2	0	0	0	stim010_stimuli_original_vehicles_boats_2.png	C	0	0	0	270.350744984113	270.550733329728
70863.5	100	359	9	1	16	35	5	1	0	0	0	stim006_stimuli_original_animals_fish_2.png	B	0	0	0	270.750754102599	270.950757808518
71888.5	100	360	10	0	44	0	14	10	0	0	0	stim015_stimuli_original_vehicles_planes_3.png	Q	0	0	0	274.850832755212	275.050873764325
71988.5	100	361	10	0	44	1	4	6	0	0	0	stim005_stimuli_original_animals_fish_1.png	G	0	0	0	275.250882346183	275.450882151257
72088.5	100	362	10	0	44	2	3	8	0	0	0	stim004_stimuli_original_animals_birds_4.png	K	0	0	0	275.650893902872	275.850892976392
72188.5	100	363	10	0	44	3	9	12	0	0	0	stim010_stimuli_original_vehicles_boats_2.png	T	0	0	0	276.050896682311	276.250907458365
72288.5	100	364	10	0	44	4	10	2	0	0	0	stim011_stimuli_original_vehicles_boats_3.png	C	0	0	0	276.450880688149	276.650893658865
72388.5	100	365	10	0	44	5	5	0	0	0	0	stim006_stimuli_original_animals_fish_2.png	A	0	0	0	276.850900778081	277.050931790844
72488.5	100	366	10	0	44	6	2	1	0	0	0	stim003_stimuli_original_animals_birds_3.png	B	0	0	0	277.250912578776	277.450933595188
72588.5	100	367	10	0	44	7	12	3	0	0	0	stim013_stimuli_original_vehicles_planes_1.png	D	0	0	0	277.650939007755	277.850945395418
72688.5	100	368	10	0	44	8	6	15	0	0	0	stim007_stimuli_original_animals_fish_3.png	Y	0	0	0	278.050948125776	278.25095378235
72788.5	100	369	10	0	44	9	8	5	0	0	0	stim009_stimuli_original_vehicles_boats_1.png	F	0	0	0	278.450969434809	278.65096948389
72888.5	100	370	10	0	44	10	12	13	1	0	0	stim013_stimuli_original_vehicles_planes_1.png	U	0	0	0	278.850969044957	279.050973481964
72988.5	100	371	10	0	44	11	7	2	0	1	0	stim008_stimuli_original_animals_fish_4.png	C	0	0	0	279.250983039383	279.450983332004
73088.5	100	372	10	0	44	12	12	14	1	0	1	stim013_stimuli_original_vehicles_planes_1.png	V	0	0	0	279.65097557893	279.851124838926
73188.5	100	373	10	0	44	13	11	2	0	1	0	stim012_stimuli_original_vehicles_boats_4.png	C	d	280.043536806945	1	280.051004446112	280.251005226281
73288.5	100	374	10	0	44	14	0	9	0	0	0	stim001_stimuli_original_animals_birds_1.png	L	0	0	0	280.45101502724	280.651014832314
73388.75	100	375	10	0	44	15	13	11	0	0	0	stim014_stimuli_original_vehicles_planes_2.png	R	0	0	0	280.851025364827	281.051026389003
73488.75	100	376	10	0	44	16	1	4	0	0	0	stim002_stimuli_original_animals_birds_2.png	E	0	0	0	281.251017660368	281.451037945226
73588.75	100	377	10	0	44	17	15	7	0	0	0	stim016_stimuli_original_vehicles_planes_4.png	J	0	0	0	281.651050184853	281.851049014367
73688.75	100	378	10	0	44	18	7	15	0	0	0	stim008_stimuli_original_animals_fish_4.png	Y	0	0	0	282.051040529739	282.251041066367
73788.75	100	379	10	0	44	19	4	1	0	0	0	stim005_stimuli_original_animals_fish_1.png	B	0	0	0	282.45107134711	282.651071883738
73888.75	100	380	10	0	44	20	11	13	0	0	0	stim012_stimuli_original_vehicles_boats_4.png	U	0	0	0	282.851080222055	283.051084903069
73988.75	100	381	10	0	44	21	9	0	0	0	0	stim010_stimuli_original_vehicles_boats_2.png	A	0	0	0	283.251089584082	283.451073541772
74088.75	100	382	10	0	44	22	2	11	1	0	0	stim003_stimuli_original_animals_birds_3.png	R	0	0	0	283.651105529163	283.851102164946
74188.75	100	383	10	0	44	23	14	12	0	1	0	stim015_stimuli_original_vehicles_planes_3.png	T	0	0	0	284.051111721899	284.251112258527
74288.75	100	384	10	0	44	24	2	7	1	0	1	stim003_stimuli_original_animals_birds_3.png	J	0	0	0	284.451119377743	284.651127960067
74388.75	100	385	10	0	44	25	13	12	0	1	0	stim014_stimuli_original_vehicles_planes_2.png	T	0	0	0	284.851129958872	285.051149025094
74488.75	100	386	10	0	44	26	5	8	0	0	0	stim006_stimuli_original_animals_fish_2.png	K	0	0	0	285.251119572669	285.451125960797
74588.75	100	387	10	0	44	27	15	6	0	0	0	stim016_stimuli_original_vehicles_planes_4.png	G	0	0	0	285.651138931047	285.851123376284
74688.75	100	388	10	0	44	28	3	12	0	0	0	stim004_stimuli_original_animals_birds_4.png	T	0	0	0	286.051153169945	286.251148586161
74788.75	100	389	10	0	44	29	1	2	0	0	0	stim002_stimuli_original_animals_birds_2.png	C	0	0	0	286.451156436931	286.651175502688
74888.75	100	390	10	0	44	30	0	5	0	0	0	stim001_stimuli_original_animals_birds_1.png	F	0	0	0	286.851188473403	287.051186327823
74988.75	100	391	10	0	44	31	2	10	0	0	0	stim003_stimuli_original_animals_birds_3.png	Q	0	0	0	287.251194178592	287.451196908951
75088.75	100	392	10	0	44	32	12	9	0	0	0	stim013_stimuli_original_vehicles_planes_1.png	L	0	0	0	287.651216706261	287.851215048693
75188.75	100	393	10	0	44	33	8	3	0	0	0	stim009_stimuli_original_vehicles_boats_1.png	D	0	0	0	288.051217047963	288.251219047233
75288.75	100	394	10	0	44	34	6	4	0	0	0	stim007_stimuli_original_animals_fish_3.png	E	0	0	0	288.451210318599	288.651230359916
75388.75	100	395	10	0	44	35	10	14	0	0	0	stim011_stimuli_original_vehicles_boats_3.png	V	0	0	0	288.851236016024	289.051254350692
77755.5	100	396	11	1	10	0	3	13	0	0	0	stim004_stimuli_original_animals_birds_4.png	U	0	0	0	298.318158634007	298.518128938042
77855.5	100	397	11	1	10	1	8	6	0	0	0	stim009_stimuli_original_vehicles_boats_1.png	G	0	0	0	298.718166289385	298.91815731721
77955.5	100	398	11	1	10	2	7	9	0	0	0	stim008_stimuli_original_animals_fish_4.png	L	0	0	0	299.1181354234	299.318188622594
78055.5	100	399	11	1	10	3	1	1	0	0	0	stim002_stimuli_original_animals_birds_2.png	B	0	0	0	299.518191840965	299.718174823094
78155.5	100	400	11	1	10	4	11	14	0	0	0	stim012_stimuli_original_vehicles_boats_4.png	V	0	0	0	299.918199983891	300.118202470709
78255.5	100	401	11	1	10	5	14	4	0	0	0	stim015_stimuli_original_vehicles_planes_3.png	E	0	0	0	300.318213491235	300.518213783856
78355.5	100	402	11	1	10	6	15	0	0	0	0	stim016_stimuli_original_vehicles_planes_4.png	A	0	0	0	300.718211394269	300.918224852532
78455.5	100	403	11	1	10	7	10	5	0	0	0	stim011_stimuli_original_vehicles_boats_3.png	F	0	0	0	301.118204908911	301.318236409221
78555.5	100	404	11	1	10	8	12	1	0	1	0	stim013_stimuli_original_vehicles_planes_1.png	B	0	0	0	301.51824304089	301.718229436316
78655.5	100	405	11	1	10	9	9	15	0	0	0	stim010_stimuli_original_vehicles_boats_2.png	Y	0	0	0	301.918236799072	302.118240504991
78755.5	100	406	11	1	10	10	14	1	1	1	1	stim015_stimuli_original_vehicles_planes_3.png	B	0	0	0	302.318261277862	302.518267177977
78855.5	100	407	11	1	10	11	6	3	0	0	0	stim007_stimuli_original_animals_fish_3.png	D	0	0	0	302.718260399997	302.918275321368
78955.5	100	408	11	1	10	12	14	10	1	0	0	stim015_stimuli_original_vehicles_planes_3.png	Q	0	0	0	303.11828463478	303.3182895598
79055.5	100	409	11	1	10	13	13	2	0	0	0	stim014_stimuli_original_vehicles_planes_2.png	C	0	0	0	303.518301311415	303.71830428578
79155.5	100	410	11	1	10	14	0	8	0	0	0	stim001_stimuli_original_animals_birds_1.png	K	0	0	0	303.91829458205	304.118314379361
79255.5	100	411	11	1	10	15	2	12	0	0	0	stim003_stimuli_original_animals_birds_3.png	T	0	0	0	304.318773033563	304.51833495684
79355.5	100	412	11	1	10	16	5	11	0	0	0	stim006_stimuli_original_animals_fish_2.png	R	0	0	0	304.718331592623	304.918337492738
79455.5	100	413	11	1	10	17	4	7	0	0	0	stim005_stimuli_original_animals_fish_1.png	J	0	0	0	305.118343636394	305.318348317873
79555.5	100	414	11	1	10	18	7	4	0	0	0	stim008_stimuli_original_animals_fish_4.png	E	0	0	0	305.518352998886	305.7183635314
79655.5	100	415	11	1	10	19	11	5	0	0	0	stim012_stimuli_original_vehicles_boats_4.png	F	0	0	0	305.918367481325	306.1183497319
79755.5	100	416	11	1	10	20	12	2	0	0	0	stim013_stimuli_original_vehicles_planes_1.png	C	0	0	0	306.318368554115	306.518376891967
79855.5	100	417	11	1	10	21	8	0	0	0	0	stim009_stimuli_original_vehicles_boats_1.png	A	0	0	0	306.718400346581	306.918388205115
79955.5	100	418	11	1	10	22	2	13	0	0	0	stim003_stimuli_original_animals_birds_3.png	U	0	0	0	307.118422387168	307.318403906189
80055.5	100	419	11	1	10	23	10	14	0	1	0	stim011_stimuli_original_vehicles_boats_3.png	V	0	0	0	307.518409075215	307.718412293121
80155.5	100	420	11	1	10	24	3	6	0	0	0	stim004_stimuli_original_animals_birds_4.png	G	0	0	0	307.918415511493	308.118419704959
80255.5	100	421	11	1	10	25	1	14	1	1	1	stim002_stimuli_original_animals_birds_2.png	V	0	0	0	308.31842877483	308.518435894046
80355.5	100	422	11	1	10	26	15	9	0	0	0	stim016_stimuli_original_vehicles_planes_4.png	L	d	308.710993659683	1	308.71843862487	308.91844062414
80455.5	100	423	11	1	10	27	1	12	1	0	0	stim002_stimuli_original_animals_birds_2.png	T	0	0	0	309.118434821256	309.318467053119
80555.5	100	424	11	1	10	28	5	10	0	0	0	stim006_stimuli_original_animals_fish_2.png	Q	0	0	0	309.518464175984	309.718961352017
80655.5	100	425	11	1	10	29	0	15	0	0	0	stim001_stimuli_original_animals_birds_1.png	Y	0	0	0	309.918470612727	310.118475537281
80755.5	100	426	11	1	10	30	4	14	0	0	0	stim005_stimuli_original_animals_fish_1.png	V	0	0	0	310.318466809113	310.518478560727
80855.5	100	427	11	1	10	31	14	11	0	0	0	stim015_stimuli_original_vehicles_planes_3.png	R	0	0	0	310.718486655038	310.918485972565
80955.5	100	428	11	1	10	32	1	1	0	0	0	stim002_stimuli_original_animals_birds_2.png	B	0	0	0	311.118495529983	311.318497285247
81055.5	100	429	11	1	10	33	9	7	0	0	0	stim010_stimuli_original_vehicles_boats_2.png	J	0	0	0	311.518507330213	311.718511280138
81155.5	100	430	11	1	10	34	6	8	0	0	0	stim007_stimuli_original_animals_fish_3.png	K	0	0	0	311.918516692705	312.118518447969
81255.5	100	431	11	1	10	35	13	3	0	0	0	stim014_stimuli_original_vehicles_planes_2.png	D	0	0	0	312.318528736942	312.518530004658
82197.25	100	432	12	0	28	0	15	0	0	0	0	stim016_stimuli_original_vehicles_planes_4.png	A	0	0	0	316.085297462065	316.285302143078
82297.25	100	433	12	0	28	1	2	7	0	0	0	stim003_stimuli_original_animals_birds_3.png	J	0	0	0	316.485305848997	316.685315406416
82397.25	100	434	12	0	28	2	9	8	0	0	0	stim010_stimuli_original_vehicles_boats_2.png	K	0	0	0	316.885318624787	317.085315991659
82497.25	100	435	12	0	28	3	10	4	0	0	0	stim011_stimuli_original_vehicles_boats_3.png	E	0	0	0	317.285318966024	317.485323891044
82597.25	100	436	12	0	28	4	8	1	0	0	0	stim009_stimuli_original_vehicles_boats_1.png	B	0	0	0	317.685341006145	317.885733344592
82697.25	100	437	12	0	28	5	6	10	1	0	0	stim007_stimuli_original_animals_fish_3.png	Q	0	0	0	318.085337690543	318.285353099462
82797.25	100	438	12	0	28	6	11	11	0	0	0	stim012_stimuli_original_vehicles_boats_4.png	R	0	0	0	318.485363144428	318.685364412144
82897.25	100	439	12	0	28	7	6	0	1	1	1	stim007_stimuli_original_animals_fish_3.png	A	0	0	0	318.885375432204	319.085357439239
82997.25	100	440	12	0	28	8	1	9	0	0	0	stim002_stimuli_original_animals_birds_2.png	L	0	0	0	319.285407468677	319.485384599306
83097.25	100	441	12	0	28	9	14	0	0	1	0	stim015_stimuli_original_vehicles_planes_3.png	A	0	0	0	319.685394888278	319.885397619102
83197.25	100	442	12	0	28	10	12	3	0	0	0	stim013_stimuli_original_vehicles_planes_1.png	D	0	0	0	320.085404006764	320.28539040219
83297.25	100	443	12	0	28	11	13	14	0	0	0	stim014_stimuli_original_vehicles_planes_2.png	V	0	0	0	320.485426534899	320.68542097602
83397.25	100	444	12	0	28	12	7	13	0	0	0	stim008_stimuli_original_animals_fish_4.png	U	0	0	0	320.885425657034	321.085427656304
83497.25	100	445	12	0	28	13	5	6	0	0	0	stim006_stimuli_original_animals_fish_2.png	G	0	0	0	321.285435994621	321.485440675635
83597.25	100	446	12	0	28	14	6	2	0	0	0	stim007_stimuli_original_animals_fish_3.png	C	0	0	0	321.68544755131	321.885431020986
83697.25	100	447	12	0	28	15	4	12	0	0	0	stim005_stimuli_original_animals_fish_1.png	T	0	0	0	322.085430094507	322.285462813452
83797.25	100	448	12	0	28	16	0	5	0	0	0	stim001_stimuli_original_animals_birds_1.png	F	0	0	0	322.485437262338	322.685473638587
83897.25	100	449	12	0	28	17	3	15	0	0	0	stim004_stimuli_original_animals_birds_4.png	Y	0	0	0	322.885478076059	323.085481537972
83997.25	100	450	12	0	28	18	15	3	0	0	0	stim016_stimuli_original_vehicles_planes_4.png	D	0	0	0	323.285467933398	323.485498458613
84097.25	100	451	12	0	28	19	5	0	0	0	0	stim006_stimuli_original_animals_fish_2.png	A	0	0	0	323.685500213876	323.885502213147
84197.25	100	452	12	0	28	20	12	4	0	0	0	stim013_stimuli_original_vehicles_planes_1.png	E	0	0	0	324.08550981991	324.285512306727
84297.25	100	453	12	0	28	21	2	6	0	0	0	stim003_stimuli_original_animals_birds_3.png	G	0	0	0	324.485509917606	324.685528739821
84397.25	100	454	12	0	28	22	6	5	0	0	0	stim007_stimuli_original_animals_fish_3.png	F	0	0	0	324.885535127483	325.085532981902
84497.25	100	455	12	0	28	23	13	7	0	0	0	stim014_stimuli_original_vehicles_planes_2.png	J	0	0	0	325.285543026868	325.485548439436
84597.25	100	456	12	0	28	24	14	13	0	0	0	stim015_stimuli_original_vehicles_planes_3.png	U	0	0	0	325.685555314645	325.885541222524
84697.25	100	457	12	0	28	25	3	12	0	0	0	stim004_stimuli_original_animals_birds_4.png	T	0	0	0	326.085564433131	326.285565944854
84797.25	100	458	12	0	28	26	0	14	1	0	0	stim001_stimuli_original_animals_birds_1.png	V	0	0	0	326.485577940475	326.685578964185
84897.25	100	459	12	0	28	27	9	1	0	0	0	stim010_stimuli_original_vehicles_boats_2.png	B	0	0	0	326.88557096757	327.085601736326
84997.25	100	460	12	0	28	28	0	6	1	1	1	stim001_stimuli_original_animals_birds_1.png	G	0	0	0	327.2855956899	327.485597445164
85097.25	100	461	12	0	28	29	11	11	0	0	0	stim012_stimuli_original_vehicles_boats_4.png	R	d	327.877399938181	1	327.685608709231	327.885608757846
85197.25	100	462	12	0	28	30	10	6	0	1	0	stim011_stimuli_original_vehicles_boats_3.png	G	0	0	0	328.085619290359	328.285619095434
85297.25	100	463	12	0	28	31	1	8	0	0	0	stim002_stimuli_original_animals_birds_2.png	K	0	0	0	328.486038008705	328.685640404467
85397.25	100	464	12	0	28	32	4	10	0	0	0	stim005_stimuli_original_animals_fish_1.png	Q	0	0	0	328.885637039784	329.08564123325
85497.25	100	465	12	0	28	33	8	9	0	0	0	stim009_stimuli_original_vehicles_boats_1.png	L	0	0	0	329.285650303122	329.485634991899
85597.25	100	466	12	0	28	34	7	2	0	0	0	stim008_stimuli_original_animals_fish_4.png	C	0	0	0	329.685660152696	329.885685801506
85697.25	100	467	12	0	28	35	0	15	0	0	0	stim001_stimuli_original_animals_birds_1.png	Y	0	0	0	330.085655374452	330.285678341053
87243.25	100	468	13	1	20	0	8	4	0	0	0	stim009_stimuli_original_vehicles_boats_1.png	E	0	0	0	336.269181219395	336.469154693186
87343.25	100	469	13	1	20	1	12	10	0	0	0	stim013_stimuli_original_vehicles_planes_1.png	Q	0	0	0	336.669167907443	336.869185754564
87443.25	100	470	13	1	20	2	0	3	0	0	0	stim001_stimuli_original_animals_birds_1.png	D	0	0	0	337.069192142226	337.269192434847
87543.25	100	471	13	1	20	3	14	15	0	0	0	stim015_stimuli_original_vehicles_planes_3.png	Y	0	0	0	337.469185412861	337.669205454178
87643.25	100	472	13	1	20	4	9	12	0	0	0	stim010_stimuli_original_vehicles_boats_2.png	T	0	0	0	337.869218180887	338.069206526969
87743.25	100	473	13	1	20	5	0	11	1	0	0	stim001_stimuli_original_animals_birds_1.png	R	0	0	0	338.269223886076	338.469224178698
87843.25	100	474	13	1	20	6	1	9	0	0	0	stim002_stimuli_original_animals_birds_2.png	L	0	0	0	338.669235930312	338.869236222934
87943.25	100	475	13	1	20	7	0	2	1	0	0	stim001_stimuli_original_animals_birds_1.png	C	0	0	0	339.069617345929	339.269251680467
88043.25	100	476	13	1	20	8	7	6	0	0	0	stim008_stimuli_original_animals_fish_4.png	G	0	0	0	339.469252704643	339.669259092305
88143.25	100	477	13	1	20	9	3	7	0	0	0	stim004_stimuli_original_animals_birds_4.png	J	0	0	0	339.869269868825	340.069271868095
88243.25	100	478	13	1	20	10	13	8	0	1	0	stim014_stimuli_original_vehicles_planes_2.png	K	0	0	0	340.269275086001	340.469261968974
88343.25	100	479	13	1	20	11	11	14	0	0	0	stim012_stimuli_original_vehicles_boats_4.png	V	0	0	0	340.669290543534	340.869291567709
88443.25	100	480	13	1	20	12	10	8	0	1	1	stim011_stimuli_original_vehicles_boats_3.png	K	0	0	0	341.069284058176	341.269282644149
88543.25	100	481	13	1	20	13	5	13	0	0	0	stim006_stimuli_original_animals_fish_2.png	U	0	0	0	341.469307317864	341.669282985386
88643.25	100	482	13	1	20	14	6	1	0	0	0	stim007_stimuli_original_animals_fish_3.png	B	0	0	0	341.86932228785	342.069319410715
88743.25	100	483	13	1	20	15	2	0	0	0	0	stim003_stimuli_original_animals_birds_3.png	A	0	0	0	342.269332381431	342.469330723397
88843.25	100	484	13	1	20	16	15	5	0	0	0	stim016_stimuli_original_vehicles_planes_4.png	F	0	0	0	342.669339793269	342.869345693383
88943.25	100	485	13	1	20	17	4	8	0	0	0	stim005_stimuli_original_animals_fish_1.png	K	0	0	0	343.069365490694	343.269358712714
89043.25	100	486	13	1	20	18	8	4	0	0	0	stim009_stimuli_original_vehicles_boats_1.png	E	0	0	0	343.469362662639	343.669365392998
89143.25	100	487	13	1	20	19	5	15	0	0	0	stim006_stimuli_original_animals_fish_2.png	Y	0	0	0	343.86937568197	344.06937768124
89243.25	100	488	13	1	20	20	0	2	0	0	0	stim001_stimuli_original_animals_birds_1.png	C	0	0	0	344.269601303153	344.469393870328
89343.25	100	489	13	1	20	21	1	6	0	0	0	stim002_stimuli_original_animals_birds_2.png	G	0	0	0	344.669395625591	344.869400063064
89443.25	100	490	13	1	20	22	13	5	0	0	0	stim014_stimuli_original_vehicles_planes_2.png	F	0	0	0	345.069389140233	345.269391383044
89543.25	100	491	13	1	20	23	8	10	1	0	0	stim009_stimuli_original_vehicles_boats_1.png	Q	0	0	0	345.469415081665	345.669422200881
89643.25	100	492	13	1	20	24	14	11	0	0	0	stim015_stimuli_original_vehicles_planes_3.png	R	0	0	0	345.869397380855	346.069450824056
89743.25	100	493	13	1	20	25	8	13	1	0	0	stim009_stimuli_original_vehicles_boats_1.png	U	0	0	0	346.269430636428	346.469440437853
89843.25	100	494	13	1	20	26	7	3	0	0	0	stim008_stimuli_original_animals_fish_4.png	D	0	0	0	346.669433659874	346.869449312333
89943.25	100	495	13	1	20	27	6	7	0	0	0	stim007_stimuli_original_animals_fish_3.png	J	0	0	0	347.069463014603	347.26944672782
90043.25	100	496	13	1	20	28	2	0	0	1	0	stim003_stimuli_original_animals_birds_3.png	A	0	0	0	347.469450921286	347.669473156799
90143.25	100	497	13	1	20	29	9	1	0	0	0	stim010_stimuli_original_vehicles_boats_2.png	B	0	0	0	347.869481495116	348.069480325095
90243.25	100	498	13	1	20	30	11	0	0	1	1	stim012_stimuli_original_vehicles_boats_4.png	A	0	0	0	348.269491832703	348.469492369331
90343.25	100	499	13	1	20	31	12	9	0	0	0	stim013_stimuli_original_vehicles_planes_1.png	L	d	348.861265361309	1	348.669500463642	348.869504169561
90443.25	100	500	13	1	20	32	15	14	0	0	0	stim016_stimuli_original_vehicles_planes_4.png	V	0	0	0	349.069480081089	349.2694881754
90543.25	100	501	13	1	20	33	3	0	0	0	0	stim004_stimuli_original_animals_birds_4.png	A	0	0	0	349.46949700173	349.669845941477
90643.25	100	502	13	1	20	34	10	12	0	0	0	stim011_stimuli_original_vehicles_boats_3.png	T	0	0	0	349.869532207493	350.069536644965
90743.25	100	503	13	1	20	35	4	8	0	0	0	stim005_stimuli_original_animals_fish_1.png	K	0	0	0	350.269544008188	350.469545275904
94872.5	100	504	14	0	36	0	5	11	0	0	0	stim006_stimuli_original_animals_fish_2.png	R	0	0	0	366.786651628558	366.986652408727
94972.5	100	505	14	0	36	1	13	6	0	0	0	stim014_stimuli_original_vehicles_planes_2.png	G	0	0	0	367.186661722139	367.386662989855
95072.5	100	506	14	0	36	2	12	15	0	0	0	stim013_stimuli_original_vehicles_planes_1.png	Y	0	0	0	367.586669621523	367.786677472293
95172.5	100	507	14	0	36	3	8	10	0	0	0	stim009_stimuli_original_vehicles_boats_1.png	Q	0	0	0	367.986684103962	368.186688297428
95272.5	100	508	14	0	36	4	7	9	0	0	0	stim008_stimuli_original_animals_fish_4.png	L	0	0	0	368.386703218333	368.586683274712
95372.5	100	509	14	0	36	5	9	1	0	0	0	stim010_stimuli_original_vehicles_boats_2.png	B	0	0	0	368.786711361725	368.986711654346
95472.5	100	510	14	0	36	6	8	8	1	0	0	stim009_stimuli_original_vehicles_boats_1.png	K	0	0	0	369.186718529556	369.386727355421
95572.5	100	511	14	0	36	7	3	2	0	0	0	stim004_stimuli_original_animals_birds_4.png	C	0	0	0	369.586712531745	369.786733548157
95672.5	100	512	14	0	36	8	8	3	1	0	1	stim009_stimuli_original_vehicles_boats_1.png	D	0	0	0	369.986744568683	370.186741935555
95772.5	100	513	14	0	36	9	11	7	0	0	0	stim012_stimuli_original_vehicles_boats_4.png	J	0	0	0	370.387215462048	370.586762513034
95872.5	100	514	14	0	36	10	4	14	0	0	0	stim005_stimuli_original_animals_fish_1.png	V	0	0	0	370.786761342548	370.986765048467
95972.5	100	515	14	0	36	11	1	2	0	1	0	stim002_stimuli_original_animals_birds_2.png	C	0	0	0	371.186770705041	371.386757344007
96072.5	100	516	14	0	36	12	0	4	0	0	0	stim001_stimuli_original_animals_birds_1.png	E	0	0	0	371.58676763298	371.786787673831
96172.5	100	517	14	0	36	13	15	2	0	1	0	stim016_stimuli_original_vehicles_planes_4.png	C	0	0	0	371.986777970567	372.186775337439
96272.5	100	518	14	0	36	14	10	12	0	0	0	stim011_stimuli_original_vehicles_boats_3.png	T	0	0	0	372.386780993547	372.586781042628
96372.5	100	519	14	0	36	15	2	13	0	0	0	stim003_stimuli_original_animals_birds_3.png	U	0	0	0	372.786813274026	372.986828926485
96472.5	100	520	14	0	36	16	6	0	0	0	0	stim007_stimuli_original_animals_fish_3.png	A	0	0	0	373.186795329675	373.386812932789
96572.5	100	521	14	0	36	17	14	5	0	0	0	stim015_stimuli_original_vehicles_planes_3.png	F	0	0	0	373.586818588898	373.786842287518
96672.5	100	522	14	0	36	18	5	14	0	0	0	stim006_stimuli_original_animals_fish_2.png	V	0	0	0	373.986849162728	374.18682092987
96772.5	100	523	14	0	36	19	0	6	0	0	0	stim001_stimuli_original_animals_birds_1.png	G	0	0	0	374.386877054349	374.586844920646
96872.5	100	524	14	0	36	20	13	2	0	0	0	stim014_stimuli_original_vehicles_planes_2.png	C	0	0	0	374.786870081443	374.986855014227
96972.5	100	525	14	0	36	21	12	10	0	0	0	stim013_stimuli_original_vehicles_planes_1.png	Q	0	0	0	375.186876762193	375.3868811992
97072.5	100	526	14	0	36	22	2	15	1	0	0	stim003_stimuli_original_animals_birds_3.png	Y	0	0	0	375.586890513077	375.787131445482
97172.5	100	527	14	0	36	23	4	0	0	0	0	stim005_stimuli_original_animals_fish_1.png	A	0	0	0	375.986905239057	376.186926986557
97272.5	100	528	14	0	36	24	2	1	1	0	1	stim003_stimuli_original_animals_birds_3.png	B	0	0	0	376.386909237597	376.586898558773
97372.5	100	529	14	0	36	25	14	4	0	0	0	stim015_stimuli_original_vehicles_planes_3.png	E	0	0	0	376.786919087172	376.986927669495
97472.5	100	530	14	0	36	26	7	11	0	0	0	stim008_stimuli_original_animals_fish_4.png	R	0	0	0	377.186931131408	377.386917526834
97572.5	100	531	14	0	36	27	3	8	0	1	0	stim004_stimuli_original_animals_birds_4.png	K	0	0	0	377.586941956542	377.786948100664
97672.5	100	532	14	0	36	28	2	3	0	0	0	stim003_stimuli_original_animals_birds_3.png	D	0	0	0	377.986953025684	378.186959169805
97772.5	100	533	14	0	36	29	8	8	0	1	0	stim009_stimuli_original_vehicles_boats_1.png	K	0	0	0	378.386946540326	378.586968288291
97872.5	100	534	14	0	36	30	1	9	0	0	0	stim002_stimuli_original_animals_birds_2.png	L	0	0	0	378.786975407507	378.986978137866
97972.5	100	535	14	0	36	31	9	7	0	0	0	stim010_stimuli_original_vehicles_boats_2.png	J	0	0	0	379.186986232642	379.386988231447
98072.5	100	536	14	0	36	32	10	8	0	0	0	stim011_stimuli_original_vehicles_boats_3.png	K	0	0	0	379.586997788865	379.786981502548
98172.5	100	537	14	0	36	33	15	12	0	0	0	stim016_stimuli_original_vehicles_planes_4.png	T	0	0	0	379.987013490405	380.187000129372
98272.5	100	538	14	0	36	34	6	13	0	0	0	stim007_stimuli_original_animals_fish_3.png	U	0	0	0	380.387017244939	380.587023632601
98372.5	100	539	14	0	36	35	11	5	0	0	0	stim012_stimuli_original_vehicles_boats_4.png	F	0	0	0	380.787012953777	380.987032995094
99335	100	540	15	1	33	0	11	2	0	0	0	stim012_stimuli_original_vehicles_boats_4.png	C	0	0	0	384.637144757435	384.837124569807
99435	100	541	15	1	33	1	2	8	0	0	0	stim003_stimuli_original_animals_birds_3.png	K	0	0	0	385.037135589868	385.237137345597
99535	100	542	15	1	33	2	8	3	0	0	0	stim009_stimuli_original_vehicles_boats_1.png	D	0	0	0	385.437143001705	385.637146220077
99635	100	543	15	1	33	3	7	5	0	0	0	stim008_stimuli_original_animals_fish_4.png	F	0	0	0	385.837156509049	386.037157532759
99735	100	544	15	1	33	4	6	13	0	0	0	stim007_stimuli_original_animals_fish_3.png	U	0	0	0	386.237171966583	386.437184937298
99835	100	545	15	1	33	5	15	4	0	0	0	stim016_stimuli_original_vehicles_planes_4.png	E	0	0	0	386.637212780304	386.837187472731
99935	100	546	15	1	33	6	10	10	0	0	0	stim011_stimuli_original_vehicles_boats_3.png	Q	0	0	0	387.037192153744	387.237183669116
100035	100	547	15	1	33	7	1	14	0	0	0	stim002_stimuli_original_animals_birds_2.png	V	0	0	0	387.437196639832	387.637269100174
100135	100	548	15	1	33	8	9	9	0	0	0	stim010_stimuli_original_vehicles_boats_2.png	L	0	0	0	387.837199419271	388.037222142331
100235	100	549	15	1	33	9	0	6	0	0	0	stim001_stimuli_original_animals_birds_1.png	G	0	0	0	388.23722584825	388.437231017277
100335	100	550	15	1	33	10	1	12	1	0	0	stim002_stimuli_original_animals_birds_2.png	T	0	0	0	388.637240330689	388.837243305054
100435	100	551	15	1	33	11	13	11	0	0	0	stim014_stimuli_original_vehicles_planes_2.png	R	0	0	0	389.037234820426	389.237251204439
100535	100	552	15	1	33	12	1	10	1	1	0	stim002_stimuli_original_animals_birds_2.png	Q	0	0	0	389.437237112317	389.63726519933
100635	100	553	15	1	33	13	12	1	0	0	0	stim013_stimuli_original_vehicles_planes_1.png	B	0	0	0	389.837268173695	390.037255544215
100735	100	554	15	1	33	14	3	10	0	1	1	stim004_stimuli_original_animals_birds_4.png	Q	0	0	0	390.237279242836	390.437283923849
100835	100	555	15	1	33	15	4	15	0	0	0	stim005_stimuli_original_animals_fish_1.png	Y	d	390.829059841577	1	390.637295187917	390.837276463397
100935	100	556	15	1	33	16	5	7	0	0	0	stim006_stimuli_original_animals_fish_2.png	J	0	0	0	391.037301136646	391.237282656133
101035	100	557	15	1	33	17	14	0	0	0	0	stim015_stimuli_original_vehicles_planes_3.png	A	0	0	0	391.437314399984	391.6373156677
101135	100	558	15	1	33	18	0	14	0	0	0	stim001_stimuli_original_animals_birds_1.png	V	0	0	0	391.837323274463	392.037324298639
101235	100	559	15	1	33	19	7	5	0	0	0	stim008_stimuli_original_animals_fish_4.png	F	0	0	0	392.237334343605	392.437334879767
101335	100	560	15	1	33	20	15	4	0	0	0	stim016_stimuli_original_vehicles_planes_4.png	E	0	0	0	392.637343218084	392.837330345064
101435.25	100	561	15	1	33	21	10	3	1	0	0	stim011_stimuli_original_vehicles_boats_3.png	D	0	0	0	393.037344290875	393.237373352982
101535.25	100	562	15	1	33	22	1	12	0	0	0	stim002_stimuli_original_animals_birds_2.png	T	0	0	0	393.437364868354	393.637367111631
101635.25	100	563	15	1	33	23	10	1	1	1	0	stim011_stimuli_original_vehicles_boats_3.png	B	0	0	0	393.837380569894	394.03737891186
101735.25	100	564	15	1	33	24	11	13	0	0	0	stim012_stimuli_original_vehicles_boats_4.png	U	0	0	0	394.237387737725	394.437392175198
101835.25	100	565	15	1	33	25	12	1	0	1	1	stim013_stimuli_original_vehicles_planes_1.png	B	0	0	0	394.637405145913	394.837400806136
101935.25	100	566	15	1	33	26	6	0	0	0	0	stim007_stimuli_original_animals_fish_3.png	A	0	0	0	395.037392809056	395.237408949062
102035.25	100	567	15	1	33	27	9	9	0	0	0	stim010_stimuli_original_vehicles_boats_2.png	L	0	0	0	395.437427039724	395.637424650602
102135.25	100	568	15	1	33	28	14	1	0	0	0	stim015_stimuli_original_vehicles_planes_3.png	B	0	0	0	395.837428600062	396.037416702602
102235.25	100	569	15	1	33	29	10	10	0	0	0	stim011_stimuli_original_vehicles_boats_3.png	Q	0	0	0	396.237444545608	396.437437767629
102335.25	100	570	15	1	33	30	4	15	0	0	0	stim005_stimuli_original_animals_fish_1.png	Y	0	0	0	396.637446105946	396.837469804101
102435.25	100	571	15	1	33	31	13	6	0	0	0	stim014_stimuli_original_vehicles_planes_2.png	G	0	0	0	397.037465464324	397.237460148986
102535.25	100	572	15	1	33	32	5	7	0	0	0	stim006_stimuli_original_animals_fish_2.png	J	0	0	0	397.437465074006	397.637470486574
102635.25	100	573	15	1	33	33	3	8	0	0	0	stim004_stimuli_original_animals_birds_4.png	K	0	0	0	397.837454444263	398.037468633614
102735.25	100	574	15	1	33	34	8	2	0	0	0	stim009_stimuli_original_vehicles_boats_1.png	C	0	0	0	398.23748745583	398.437514567282
102835.25	100	575	15	1	33	35	2	11	0	0	0	stim003_stimuli_original_animals_birds_3.png	R	0	0	0	398.63750023162	398.837501499336
103968.5	100	576	16	0	18	0	2	7	0	0	0	stim003_stimuli_original_animals_birds_3.png	J	0	0	0	403.170959175564	403.37096531922
104068.5	100	577	16	0	18	1	3	15	0	0	0	stim004_stimuli_original_animals_birds_4.png	Y	0	0	0	403.57095537195	403.770971268415
104168.5	100	578	16	0	18	2	9	6	0	0	0	stim010_stimuli_original_vehicles_boats_2.png	G	0	0	0	403.97098009428	404.170982825104
104268.5	100	579	16	0	18	3	14	4	0	0	0	stim015_stimuli_original_vehicles_planes_3.png	E	0	0	0	404.370993113611	404.570995112881
104368.5	100	580	16	0	18	4	8	13	0	0	0	stim009_stimuli_original_vehicles_boats_1.png	U	0	0	0	404.771001500543	404.971003256273
104468.5	100	581	16	0	18	5	6	12	0	0	0	stim007_stimuli_original_animals_fish_3.png	T	0	0	0	405.170994527638	405.371017738245
104568.5	100	582	16	0	18	6	11	14	0	0	0	stim012_stimuli_original_vehicles_boats_4.png	V	0	0	0	405.571019737516	405.771025150083
104668.5	100	583	16	0	18	7	0	9	0	0	0	stim001_stimuli_original_animals_birds_1.png	L	0	0	0	405.971031294204	406.171017933637
104768.5	100	584	16	0	18	8	5	11	0	0	0	stim006_stimuli_original_animals_fish_2.png	R	0	0	0	406.371042119339	406.571045093704
104868.5	100	585	16	0	18	9	11	0	1	0	0	stim012_stimuli_original_vehicles_boats_4.png	A	0	0	0	406.771038559731	406.971054943744
104968.5	100	586	16	0	18	10	12	8	0	0	0	stim013_stimuli_original_vehicles_planes_1.png	K	0	0	0	407.171068402007	407.371087467764
105068.5	100	587	16	0	18	11	11	15	1	1	1	stim012_stimuli_original_vehicles_boats_4.png	Y	0	0	0	407.571079714689	407.771077569108
105168.5	100	588	16	0	18	12	10	10	0	0	0	stim011_stimuli_original_vehicles_boats_3.png	Q	0	0	0	407.971133938059	408.171072059311
105268.5	100	589	16	0	18	13	1	15	0	1	0	stim002_stimuli_original_animals_birds_2.png	Y	0	0	0	408.371102828067	408.57108069025
105368.75	100	590	16	0	18	14	7	5	0	0	0	stim008_stimuli_original_animals_fish_4.png	F	0	0	0	408.771509111859	408.971115652472
105468.5	100	591	16	0	18	15	4	3	0	0	0	stim005_stimuli_original_animals_fish_1.png	D	0	0	0	409.171120333485	409.371120869648
105568.5	100	592	16	0	18	16	13	1	0	0	0	stim014_stimuli_original_vehicles_planes_2.png	B	0	0	0	409.571130183525	409.771114872303
105668.5	100	593	16	0	18	17	15	2	0	0	0	stim016_stimuli_original_vehicles_planes_4.png	C	0	0	0	409.971136132255	410.171126672532
105768.5	100	594	16	0	18	18	2	15	0	0	0	stim003_stimuli_original_animals_birds_3.png	Y	0	0	0	410.371148176491	410.57115188241
105868.5	100	595	16	0	18	19	1	13	0	0	0	stim002_stimuli_original_animals_birds_2.png	U	0	0	0	410.771168022417	410.971164170187
105968.5	100	596	16	0	18	20	3	4	0	0	0	stim004_stimuli_original_animals_birds_4.png	E	0	0	0	411.171170070767	411.371162805241
106068.5	100	597	16	0	18	21	5	7	0	0	0	stim006_stimuli_original_animals_fish_2.png	J	0	0	0	411.571185771842	411.771167291328
106168.5	100	598	16	0	18	22	15	1	1	0	0	stim016_stimuli_original_vehicles_planes_4.png	B	0	0	0	411.971190257929	412.171180310659
106268.5	100	599	16	0	18	23	10	10	0	0	0	stim011_stimuli_original_vehicles_boats_3.png	Q	0	0	0	412.371204008814	412.571192354895
106368.5	100	600	16	0	18	24	15	11	1	1	1	stim016_stimuli_original_vehicles_planes_4.png	R	0	0	0	412.771217515692	412.971200497821
106468.5	100	601	16	0	18	25	8	12	0	0	0	stim009_stimuli_original_vehicles_boats_1.png	T	0	0	0	413.171224439982	413.371230096556
106568.5	100	602	16	0	18	26	0	11	0	1	0	stim001_stimuli_original_animals_birds_1.png	R	0	0	0	413.57123770332	413.771219222806
106668.5	100	603	16	0	18	27	11	5	0	0	0	stim012_stimuli_original_vehicles_boats_4.png	F	0	0	0	413.971245359164	414.171488485765
106768.5	100	604	16	0	18	28	9	0	0	0	0	stim010_stimuli_original_vehicles_boats_2.png	A	0	0	0	414.371259109583	414.571260133758
106868.5	100	605	16	0	18	29	14	11	0	0	0	stim015_stimuli_original_vehicles_planes_3.png	R	0	0	0	414.771270422731	414.971258524805
106968.5	100	606	16	0	18	30	12	6	0	0	0	stim013_stimuli_original_vehicles_planes_1.png	G	0	0	0	415.171279541217	415.37128422223
107068.5	100	607	16	0	18	31	13	8	0	0	0	stim014_stimuli_original_vehicles_planes_2.png	K	0	0	0	415.57129109744	415.771306018811
107168.5	100	608	16	0	18	32	4	14	0	0	0	stim005_stimuli_original_animals_fish_1.png	V	d	415.963869635947	0	415.971282661892	416.17130294675
107268.5	100	609	16	0	18	33	6	9	0	0	0	stim007_stimuli_original_animals_fish_3.png	L	0	0	0	416.371313235722	416.571316453628
107368.5	100	610	16	0	18	34	15	3	0	0	0	stim016_stimuli_original_vehicles_planes_4.png	D	0	0	0	416.771322110202	416.971308749635
107468.5	100	611	16	0	18	35	7	2	0	0	0	stim008_stimuli_original_animals_fish_4.png	C	0	0	0	417.171330009587	417.371338103898
108593.75	100	612	17	1	23	0	11	8	0	0	0	stim012_stimuli_original_vehicles_boats_4.png	K	0	0	0	421.671456790529	421.871437822003
108693.75	100	613	17	1	23	1	15	4	0	0	0	stim016_stimuli_original_vehicles_planes_4.png	E	0	0	0	422.071460057516	422.271461325232
108793.75	100	614	17	1	23	2	4	12	0	0	0	stim005_stimuli_original_animals_fish_1.png	T	0	0	0	422.471468200907	422.671437285841
108893.75	100	615	17	1	23	3	9	14	0	0	0	stim010_stimuli_original_vehicles_boats_2.png	V	0	0	0	422.871479513589	423.071938655339
108993.75	100	616	17	1	23	4	7	10	0	0	0	stim008_stimuli_original_animals_fish_4.png	Q	0	0	0	423.271464007441	423.471480634995
109093.75	100	617	17	1	23	5	6	13	0	0	0	stim007_stimuli_original_animals_fish_3.png	U	0	0	0	423.671434360091	423.87150438223
109193.75	100	618	17	1	23	6	14	2	0	0	0	stim015_stimuli_original_vehicles_planes_3.png	C	0	0	0	424.071510525886	424.271519595757
109293.75	100	619	17	1	23	7	4	15	1	0	0	stim005_stimuli_original_animals_fish_1.png	Y	0	0	0	424.471510867588	424.671498969663
109393.75	100	620	17	1	23	8	3	7	0	0	0	stim004_stimuli_original_animals_birds_4.png	J	0	0	0	424.871515353676	425.071534419432
109493.75	100	621	17	1	23	9	4	10	1	1	0	stim005_stimuli_original_animals_fish_1.png	Q	0	0	0	425.271542026196	425.47154768277
109593.75	100	622	17	1	23	10	10	0	0	0	0	stim011_stimuli_original_vehicles_boats_3.png	A	0	0	0	425.671546999831	425.871543391608
109693.75	100	623	17	1	23	11	1	10	0	1	1	stim002_stimuli_original_animals_birds_2.png	Q	0	0	0	426.07156465156	426.271568357479
109793.75	100	624	17	1	23	12	5	5	0	0	0	stim006_stimuli_original_animals_fish_2.png	F	0	0	0	426.471576208249	426.671590398066
109893.75	100	625	17	1	23	13	8	1	0	0	0	stim009_stimuli_original_vehicles_boats_1.png	B	d	426.864157672506	1	426.871573380195	427.071607806254
109993.75	100	626	17	1	23	14	2	9	0	0	0	stim003_stimuli_original_animals_birds_3.png	L	0	0	0	427.271597370971	427.47160400264
110093.75	100	627	17	1	23	15	13	6	0	0	0	stim014_stimuli_original_vehicles_planes_2.png	G	0	0	0	427.671590642072	427.871608244721
110193.75	100	628	17	1	23	16	0	11	0	0	0	stim001_stimuli_original_animals_birds_1.png	R	0	0	0	428.071624141186	428.271607367322
110293.75	100	629	17	1	23	17	12	3	0	0	0	stim013_stimuli_original_vehicles_planes_1.png	D	0	0	0	428.471640330274	428.671634283848
110393.75	100	630	17	1	23	18	3	12	0	0	0	stim004_stimuli_original_animals_birds_4.png	T	0	0	0	428.87163774576	429.071641695686
110493.75	100	631	17	1	23	19	11	0	0	0	0	stim012_stimuli_original_vehicles_boats_4.png	A	0	0	0	429.271648814902	429.471658615861
110593.75	100	632	17	1	23	20	6	13	0	0	0	stim007_stimuli_original_animals_fish_3.png	U	0	0	0	429.67166524753	429.871662614401
110693.75	100	633	17	1	23	21	9	2	0	0	0	stim010_stimuli_original_vehicles_boats_2.png	C	0	0	0	430.071673146915	430.271678559482
110793.75	100	634	17	1	23	22	1	8	0	0	0	stim002_stimuli_original_animals_birds_2.png	K	0	0	0	430.471683484502	430.671672561672
110893.75	100	635	17	1	23	23	5	5	0	0	0	stim006_stimuli_original_animals_fish_2.png	F	0	0	0	430.871676511597	431.071693139151
110993.75	100	636	17	1	23	24	10	1	1	0	0	stim011_stimuli_original_vehicles_boats_3.png	B	0	0	0	431.271703915671	431.47169689415
111093.75	100	637	17	1	23	25	0	10	0	0	0	stim001_stimuli_original_animals_birds_1.png	Q	0	0	0	431.671710839961	431.871701380238
111193.75	100	638	17	1	23	26	10	4	1	1	0	stim011_stimuli_original_vehicles_boats_3.png	E	0	0	0	432.071707523894	432.271753165405
111293.75	100	639	17	1	23	27	7	3	0	0	0	stim008_stimuli_original_animals_fish_4.png	D	0	0	0	432.471743217669	432.671737171244
111393.75	100	640	17	1	23	28	15	4	0	1	1	stim016_stimuli_original_vehicles_planes_4.png	E	0	0	0	432.871730393264	433.071748971939
111493.75	100	641	17	1	23	29	2	14	0	0	0	stim003_stimuli_original_animals_birds_3.png	V	d	433.463522207458	1	433.271758528892	433.471759309061
111593.75	100	642	17	1	23	30	13	6	0	0	0	stim014_stimuli_original_vehicles_planes_2.png	G	0	0	0	433.672155548353	433.871758919209
111693.75	100	643	17	1	23	31	10	7	0	0	0	stim011_stimuli_original_vehicles_boats_3.png	J	0	0	0	434.071778228972	434.271786323283
111793.75	100	644	17	1	23	32	14	9	0	0	0	stim015_stimuli_original_vehicles_planes_3.png	L	0	0	0	434.471793686505	434.671773742884
111893.75	100	645	17	1	23	33	12	4	0	0	0	stim013_stimuli_original_vehicles_planes_1.png	E	0	0	0	434.871799391694	435.071785543114
111993.75	100	646	17	1	23	34	4	15	0	0	0	stim005_stimuli_original_animals_fish_1.png	Y	0	0	0	435.271810216829	435.471797099803
112093.75	100	647	17	1	23	35	8	11	0	0	0	stim009_stimuli_original_vehicles_boats_1.png	R	0	0	0	435.671804950573	435.871806705836
115418.75	100	648	18	0	6	0	12	8	0	0	0	stim013_stimuli_original_vehicles_planes_1.png	K	0	0	0	448.972180124372	449.172177491244
115518.75	100	649	18	0	6	1	4	2	0	0	0	stim005_stimuli_original_animals_fish_1.png	C	0	0	0	449.372186561115	449.572175150737
115618.75	100	650	18	0	6	2	6	0	0	0	0	stim007_stimuli_original_animals_fish_3.png	A	0	0	0	449.772181538399	449.972204261459
115718.75	100	651	18	0	6	3	15	1	0	0	0	stim016_stimuli_original_vehicles_planes_4.png	B	0	0	0	450.172210161574	450.372218256351
115818.75	100	652	18	0	6	4	14	9	1	0	0	stim015_stimuli_original_vehicles_planes_3.png	L	0	0	0	450.57221611077	450.772203725297
115918.75	100	653	18	0	6	5	5	12	0	0	0	stim006_stimuli_original_animals_fish_2.png	T	0	0	0	450.972228642553	451.172232104465
116019	100	654	18	0	6	6	14	4	1	0	1	stim015_stimuli_original_vehicles_planes_3.png	E	0	0	0	451.372701486573	451.572249268647
116118.75	100	655	18	0	6	7	10	13	0	0	0	stim011_stimuli_original_vehicles_boats_3.png	U	0	0	0	451.772250536364	451.97225277964
116218.75	100	656	18	0	6	8	8	3	0	0	0	stim009_stimuli_original_vehicles_boats_1.png	D	0	0	0	452.17223015381	452.372233616188
116318.75	100	657	18	0	6	9	3	5	0	0	0	stim004_stimuli_original_animals_birds_4.png	F	0	0	0	452.572254876141	452.772255900316
116418.75	100	658	18	0	6	10	7	10	0	0	0	stim008_stimuli_original_animals_fish_4.png	Q	0	0	0	452.972263751086	453.172282329295
116518.75	100	659	18	0	6	11	11	6	0	0	0	stim012_stimuli_original_vehicles_boats_4.png	G	0	0	0	453.372294080909	453.572294373531
116618.75	100	660	18	0	6	12	14	4	0	1	0	stim015_stimuli_original_vehicles_planes_3.png	E	0	0	0	453.772305393592	453.972314463463
116718.75	100	661	18	0	6	13	2	7	0	0	0	stim003_stimuli_original_animals_birds_3.png	J	0	0	0	454.172313049436	454.372306271456
116818.75	100	662	18	0	6	14	9	4	0	1	0	stim010_stimuli_original_vehicles_boats_2.png	E	0	0	0	454.572330701165	454.772316365037
116918.75	100	663	18	0	6	15	13	14	0	0	0	stim014_stimuli_original_vehicles_planes_2.png	V	0	0	0	454.972340307198	455.172328165267
117018.75	100	664	18	0	6	16	1	11	0	0	0	stim002_stimuli_original_animals_birds_2.png	R	0	0	0	455.37234162353	455.572332651354
117118.75	100	665	18	0	6	17	0	15	0	0	0	stim001_stimuli_original_animals_birds_1.png	Y	0	0	0	455.772360738367	455.972361274529
117218.75	100	666	18	0	6	18	15	0	0	0	0	stim016_stimuli_original_vehicles_planes_4.png	A	0	0	0	456.17236034805	456.372371368576
117318.75	100	667	18	0	6	19	11	1	0	0	0	stim012_stimuli_original_vehicles_boats_4.png	B	0	0	0	456.572379462887	456.77258650586
117418.75	100	668	18	0	6	20	14	13	0	0	0	stim015_stimuli_original_vehicles_planes_3.png	U	0	0	0	456.972385899629	457.172391799744
117518.75	100	669	18	0	6	21	4	9	1	0	0	stim005_stimuli_original_animals_fish_1.png	L	0	0	0	457.372396480758	457.572395554278
117618.75	100	670	18	0	6	22	7	2	0	0	0	stim008_stimuli_original_animals_fish_4.png	C	0	0	0	457.772409256548	457.972409305163
117718.75	100	671	18	0	6	23	4	14	1	0	1	stim005_stimuli_original_animals_fish_1.png	V	0	0	0	458.172420081683	458.372430614196
117818.75	100	672	18	0	6	24	6	11	0	0	0	stim007_stimuli_original_animals_fish_3.png	R	d	458.76419799868	1	458.572429931257	458.772438269574
117918.75	100	673	18	0	6	25	10	7	0	0	0	stim011_stimuli_original_vehicles_boats_3.png	J	0	0	0	458.972439781297	459.172440073919
118018.75	100	674	18	0	6	26	5	3	0	0	0	stim006_stimuli_original_animals_fish_2.png	D	0	0	0	459.372453776188	459.572450655047
118118.75	100	675	18	0	6	27	3	8	0	0	0	stim004_stimuli_original_animals_birds_4.png	K	0	0	0	459.772456799168	459.972461480647
118218.75	100	676	18	0	6	28	13	10	0	0	0	stim014_stimuli_original_vehicles_planes_2.png	Q	0	0	0	460.172468355857	460.372474255972
118318.75	100	677	18	0	6	29	4	14	0	1	0	stim005_stimuli_original_animals_fish_1.png	V	0	0	0	460.572483569384	460.772481423803
118418.75	100	678	18	0	6	30	12	5	0	0	0	stim013_stimuli_original_vehicles_planes_1.png	F	0	0	0	460.972489518579	461.17249761289
118518.75	100	679	18	0	6	31	9	14	0	1	0	stim010_stimuli_original_vehicles_boats_2.png	V	0	0	0	461.372505707666	461.572500392329
118618.75	100	680	18	0	6	32	1	15	0	0	0	stim002_stimuli_original_animals_birds_2.png	Y	0	0	0	461.772497027647	461.972524383105
118718.75	100	681	18	0	6	33	0	6	0	0	0	stim001_stimuli_original_animals_birds_1.png	G	0	0	0	462.172507852782	462.372540328186
118818.75	100	682	18	0	6	34	2	4	0	0	0	stim003_stimuli_original_animals_birds_3.png	E	0	0	0	462.572546959855	462.772525797132
118918.75	100	683	18	0	6	35	8	12	0	0	0	stim009_stimuli_original_vehicles_boats_1.png	T	0	0	0	462.972555347253	463.172558321618
120198	100	684	19	1	25	0	2	10	0	0	0	stim003_stimuli_original_animals_birds_3.png	Q	0	0	0	468.08935054997	468.289349379949
120298	100	685	19	1	25	1	5	6	0	0	0	stim006_stimuli_original_animals_fish_2.png	G	0	0	0	468.489366007503	468.689315343741
120398	100	686	19	1	25	2	11	7	0	0	0	stim012_stimuli_original_vehicles_boats_4.png	J	0	0	0	468.88938707253	469.089379563462
120498	100	687	19	1	25	3	0	3	0	0	0	stim001_stimuli_original_animals_birds_1.png	D	0	0	0	469.289384244476	469.489385024644
120598	100	688	19	1	25	4	12	5	0	0	0	stim013_stimuli_original_vehicles_planes_1.png	F	0	0	0	469.68937727157	469.889396824874
120698	100	689	19	1	25	5	13	15	0	0	0	stim014_stimuli_original_vehicles_planes_2.png	Y	0	0	0	470.089410283137	470.289428130258
120798	100	690	19	1	25	6	1	8	0	0	0	stim002_stimuli_original_animals_birds_2.png	K	0	0	0	470.489414769225	470.689405065961
120898	100	691	19	1	25	7	0	0	1	0	0	stim001_stimuli_original_animals_birds_1.png	A	0	0	0	470.889425350819	471.089431007393
120998	100	692	19	1	25	8	7	11	0	0	0	stim008_stimuli_original_animals_fish_4.png	R	0	0	0	471.28943641996	471.489423546474
121098	100	693	19	1	25	9	0	9	1	0	0	stim001_stimuli_original_animals_birds_1.png	L	0	0	0	471.689451633487	471.889450950548
121198	100	694	19	1	25	10	14	2	0	0	0	stim015_stimuli_original_vehicles_planes_3.png	C	0	0	0	472.089438565075	472.289464213885
121298	100	695	19	1	25	11	8	4	0	1	0	stim009_stimuli_original_vehicles_boats_1.png	E	0	0	0	472.489469138905	472.689470163081
121398	100	696	19	1	25	12	4	12	0	0	0	stim005_stimuli_original_animals_fish_1.png	T	0	0	0	472.889481914695	473.089482207317
121498	100	697	19	1	25	13	6	4	0	1	1	stim007_stimuli_original_animals_fish_3.png	E	0	0	0	473.289490301628	473.489476453047
121598	100	698	19	1	25	14	9	14	0	0	0	stim010_stimuli_original_vehicles_boats_2.png	V	0	0	0	473.689499176107	473.889504345134
121698	100	699	19	1	25	15	10	13	0	0	0	stim011_stimuli_original_vehicles_boats_3.png	U	0	0	0	474.089524142444	474.289509562775
121798	100	700	19	1	25	16	15	1	0	0	0	stim016_stimuli_original_vehicles_planes_4.png	B	0	0	0	474.489523996133	474.68952038791
121898	100	701	19	1	25	17	3	4	0	0	0	stim004_stimuli_original_animals_birds_4.png	E	0	0	0	474.889515316579	475.089518534951
121998	100	702	19	1	25	18	4	3	0	0	0	stim005_stimuli_original_animals_fish_1.png	D	0	0	0	475.289549791254	475.489571538754
122098	100	703	19	1	25	19	1	15	0	0	0	stim002_stimuli_original_animals_birds_2.png	Y	0	0	0	475.689558422193	475.889566272497
122198	100	704	19	1	25	20	13	10	0	0	0	stim014_stimuli_original_vehicles_planes_2.png	Q	0	0	0	476.089572416618	476.289574415889
122298	100	705	19	1	25	21	14	9	0	0	0	stim015_stimuli_original_vehicles_planes_3.png	L	0	0	0	476.489565199707	476.689583046827
122398.25	100	706	19	1	25	22	4	6	1	0	0	stim005_stimuli_original_animals_fish_1.png	G	0	0	0	476.889953441918	477.0896033803
122498.25	100	707	19	1	25	23	12	4	0	0	0	stim013_stimuli_original_vehicles_planes_1.png	E	0	0	0	477.289601966273	477.489604940638
122598.25	100	708	19	1	25	24	4	8	1	0	0	stim005_stimuli_original_animals_fish_1.png	K	0	0	0	477.68959938176	477.889614547137
122698	100	709	19	1	25	25	2	14	0	0	0	stim003_stimuli_original_animals_birds_3.png	V	0	0	0	478.089597041253	478.289602941368
122798.25	100	710	19	1	25	26	9	0	0	1	0	stim010_stimuli_original_vehicles_boats_2.png	A	0	0	0	478.489611767698	478.689613278955
122898.25	100	711	19	1	25	27	11	7	0	0	0	stim012_stimuli_original_vehicles_boats_4.png	J	0	0	0	478.889642585069	479.089641658589
122998.25	100	712	19	1	25	28	0	0	0	1	1	stim001_stimuli_original_animals_birds_1.png	A	0	0	0	479.289623909164	479.489655653015
123098.25	100	713	19	1	25	29	8	1	0	0	0	stim009_stimuli_original_vehicles_boats_1.png	B	0	0	0	479.68965667719	479.889660383109
123198.25	100	714	19	1	25	30	15	13	0	0	0	stim016_stimuli_original_vehicles_planes_4.png	U	0	0	0	480.08967140317	480.289676084183
123298.25	100	715	19	1	25	31	5	12	0	0	0	stim006_stimuli_original_animals_fish_2.png	T	0	0	0	480.489683934953	480.689690810628
123398.25	100	716	19	1	25	32	3	0	0	0	0	stim004_stimuli_original_animals_birds_4.png	A	0	0	0	480.889695491642	481.089696515817
123498.25	100	717	19	1	25	33	7	11	0	0	0	stim008_stimuli_original_animals_fish_4.png	R	0	0	0	481.289714606479	481.489682715852
123598.25	100	718	19	1	25	34	6	5	0	0	0	stim007_stimuli_original_animals_fish_3.png	F	0	0	0	481.689697393216	481.889722310472
123698.25	100	719	19	1	25	35	10	2	0	0	0	stim011_stimuli_original_vehicles_boats_3.png	C	0	0	0	482.089734306093	482.290006933734
125494	100	720	20	0	25	0	2	10	0	0	0	stim003_stimuli_original_animals_birds_3.png	Q	0	0	0	489.273260639049	489.473253129516
125594	100	721	20	0	25	1	5	6	0	0	0	stim006_stimuli_original_animals_fish_2.png	G	0	0	0	489.673245863989	489.873252739664
125694	100	722	20	0	25	2	11	7	0	0	0	stim012_stimuli_original_vehicles_boats_4.png	J	0	0	0	490.073275218718	490.273276730441
125794	100	723	20	0	25	3	0	3	0	0	0	stim001_stimuli_original_animals_birds_1.png	D	0	0	0	490.473276291508	490.67328243563
125894	100	724	20	0	25	4	12	5	0	0	0	stim013_stimuli_original_vehicles_planes_1.png	F	0	0	0	490.873294187244	491.073290335014
125994	100	725	20	0	25	5	13	15	0	0	0	stim014_stimuli_original_vehicles_planes_2.png	Y	0	0	0	491.273301842622	491.473306036089
126094	100	726	20	0	25	6	1	8	0	0	0	stim002_stimuli_original_animals_birds_2.png	K	0	0	0	491.673309986014	491.873311985284
126194	100	727	20	0	25	7	0	0	1	0	0	stim001_stimuli_original_animals_birds_1.png	A	0	0	0	492.073321542703	492.273324517068
126294	100	728	20	0	25	8	7	11	0	0	0	stim008_stimuli_original_animals_fish_4.png	R	0	0	0	492.473312131595	492.673326808959
126394	100	729	20	0	25	9	0	9	1	0	1	stim001_stimuli_original_animals_birds_1.png	L	0	0	0	492.873334659729	493.073347142432
126494	100	730	20	0	25	10	14	2	0	0	0	stim015_stimuli_original_vehicles_planes_3.png	C	0	0	0	493.273357674945	493.473362356424
126594	100	731	20	0	25	11	8	4	0	1	0	stim009_stimuli_original_vehicles_boats_1.png	E	0	0	0	493.673368256539	493.873807650059
126694	100	732	20	0	25	12	4	12	0	0	0	stim005_stimuli_original_animals_fish_1.png	T	0	0	0	494.07337835012	494.273381812498
126794	100	733	20	0	25	13	6	4	0	1	0	stim007_stimuli_original_animals_fish_3.png	E	0	0	0	494.473392345011	494.673391174525
126894	100	734	20	0	25	14	9	14	0	0	0	stim010_stimuli_original_vehicles_boats_2.png	V	0	0	0	494.873402438592	495.073385664262
126994	100	735	20	0	25	15	10	13	0	0	0	stim011_stimuli_original_vehicles_boats_3.png	U	0	0	0	495.273409118876	495.473413799889
127094	100	736	20	0	25	16	15	1	0	0	0	stim016_stimuli_original_vehicles_planes_4.png	B	0	0	0	495.673419212457	495.873425600585
127194	100	737	20	0	25	17	3	4	0	0	0	stim004_stimuli_original_animals_birds_4.png	E	0	0	0	496.073430281598	496.273435938172
127294	100	738	20	0	25	18	4	3	0	0	0	stim005_stimuli_original_animals_fish_1.png	D	0	0	0	496.473437936977	496.673450420145
127394	100	739	20	0	25	19	1	15	0	0	0	stim002_stimuli_original_animals_birds_2.png	Y	0	0	0	496.873451687861	497.073458563536
127494	100	740	20	0	25	20	13	10	0	0	0	stim014_stimuli_original_vehicles_planes_2.png	Q	0	0	0	497.273462269455	497.473449883983
127594	100	741	20	0	25	21	14	9	0	0	0	stim015_stimuli_original_vehicles_planes_3.png	L	0	0	0	497.67344042426	497.873471680563
127694	100	742	20	0	25	22	4	6	1	0	0	stim005_stimuli_original_animals_fish_1.png	G	0	0	0	498.073484407272	498.27348396834
127794	100	743	20	0	25	23	12	4	0	0	0	stim013_stimuli_original_vehicles_planes_1.png	E	0	0	0	498.473488405813	498.673491380177
127894	100	744	20	0	25	24	4	8	1	0	1	stim005_stimuli_original_animals_fish_1.png	K	0	0	0	498.873505813535	499.073499523569
127994	100	745	20	0	25	25	2	14	0	0	0	stim003_stimuli_original_animals_birds_3.png	V	d	499.465282755438	1	499.273516395129	499.473513274454
128094	100	746	20	0	25	26	9	0	0	1	0	stim010_stimuli_original_vehicles_boats_2.png	A	0	0	0	499.673529658467	499.873531169724
128194	100	747	20	0	25	27	11	7	0	0	0	stim012_stimuli_original_vehicles_boats_4.png	J	0	0	0	500.073536582291	500.273541019764
128294	100	748	20	0	25	28	0	0	0	1	0	stim001_stimuli_original_animals_birds_1.png	A	0	0	0	500.473556428682	500.673552819993
128394	100	749	20	0	25	29	8	1	0	0	0	stim009_stimuli_original_vehicles_boats_1.png	B	0	0	0	500.873535314575	501.073562182486
128494	100	750	20	0	25	30	15	13	0	0	0	stim016_stimuli_original_vehicles_planes_4.png	U	0	0	0	501.273572227452	501.473577152472
128594	100	751	20	0	25	31	5	12	0	0	0	stim006_stimuli_original_animals_fish_2.png	T	0	0	0	501.673580614384	501.873557257466
128694	100	752	20	0	25	32	3	0	0	0	0	stim004_stimuli_original_animals_birds_4.png	A	0	0	0	502.073574373033	502.273595145438
128794	100	753	20	0	25	33	7	11	0	0	0	stim008_stimuli_original_animals_fish_4.png	R	0	0	0	502.473599826451	502.673606214579
128894	100	754	20	0	25	34	6	5	0	0	0	stim007_stimuli_original_animals_fish_3.png	F	0	0	0	502.873597973492	503.073629717808
128994	100	755	20	0	25	35	10	2	0	0	0	stim011_stimuli_original_vehicles_boats_3.png	C	0	0	0	503.273623671383	503.473630059045
131010.75	100	756	21	1	43	0	4	12	0	0	0	stim005_stimuli_original_animals_fish_1.png	T	0	0	0	511.340511814225	511.54051454505
131110.75	100	757	21	1	43	1	15	0	0	0	0	stim016_stimuli_original_vehicles_planes_4.png	A	0	0	0	511.74052556511	511.940528539941
131210.75	100	758	21	1	43	2	2	13	0	0	0	stim003_stimuli_original_animals_birds_3.png	U	0	0	0	512.140537365805	512.340534976218
131310.75	100	759	21	1	43	3	13	10	0	0	0	stim014_stimuli_original_vehicles_planes_2.png	Q	0	0	0	512.540525516495	512.740528734867
131410.75	100	760	21	1	43	4	5	9	1	0	0	stim006_stimuli_original_animals_fish_2.png	L	0	0	0	512.94055706542	513.140542241745
131510.75	100	761	21	1	43	5	11	3	0	0	0	stim012_stimuli_original_vehicles_boats_4.png	D	0	0	0	513.340573010501	513.540566232521
131610.75	100	762	21	1	43	6	5	5	1	0	0	stim006_stimuli_original_animals_fish_2.png	F	0	0	0	513.740557260346	513.940578033216
131710.75	100	763	21	1	43	7	12	1	0	0	0	stim013_stimuli_original_vehicles_planes_1.png	B	0	0	0	514.140593929216	514.340587151702
131810.75	100	764	21	1	43	8	7	6	0	0	0	stim008_stimuli_original_animals_fish_4.png	G	0	0	0	514.540595977567	514.740584323183
131910.75	100	765	21	1	43	9	1	8	0	0	0	stim002_stimuli_original_animals_birds_2.png	K	0	0	0	514.940606315155	515.140613434371
132010.75	100	766	21	1	43	10	5	4	0	0	0	stim006_stimuli_original_animals_fish_2.png	E	0	0	0	515.34062323533	515.540639375336
132110.75	100	767	21	1	43	11	0	11	0	0	0	stim001_stimuli_original_animals_birds_1.png	R	0	0	0	515.740629428066	515.940580958966
132210.75	100	768	21	1	43	12	9	3	0	1	0	stim010_stimuli_original_vehicles_boats_2.png	D	0	0	0	516.140603681561	516.340631037019
132310.75	100	769	21	1	43	13	14	2	0	0	0	stim015_stimuli_original_vehicles_planes_3.png	C	0	0	0	516.540650103241	516.740646982566
132411	100	770	21	1	43	14	10	3	0	1	1	stim011_stimuli_original_vehicles_boats_3.png	D	0	0	0	516.940857438836	517.140671948437
132510.75	100	771	21	1	43	15	6	14	0	0	0	stim007_stimuli_original_animals_fish_3.png	V	0	0	0	517.340647372417	517.540671314579
132610.75	100	772	21	1	43	16	8	7	0	0	0	stim009_stimuli_original_vehicles_boats_1.png	J	0	0	0	517.740650151856	517.94067653222
132710.75	100	773	21	1	43	17	3	15	0	0	0	stim004_stimuli_original_animals_birds_4.png	Y	0	0	0	518.140678287484	518.340682724956
132810.75	100	774	21	1	43	18	15	3	0	0	0	stim016_stimuli_original_vehicles_planes_4.png	D	0	0	0	518.540687649976	518.740694525186
132910.75	100	775	21	1	43	19	7	8	0	0	0	stim008_stimuli_original_animals_fish_4.png	K	0	0	0	518.940700669307	519.140711201821
133011	100	776	21	1	43	20	14	6	0	0	0	stim015_stimuli_original_vehicles_planes_3.png	G	d	519.333334796131	0	519.340719540138	519.540725683793
133111	100	777	21	1	43	21	3	10	1	0	0	stim004_stimuli_original_animals_birds_4.png	Q	0	0	0	519.740713542327	519.940734558739
133211	100	778	21	1	43	22	2	14	0	0	0	stim003_stimuli_original_animals_birds_3.png	V	0	0	0	520.140747041907	520.340746602975
133311	100	779	21	1	43	23	3	9	1	0	0	stim004_stimuli_original_animals_birds_4.png	L	0	0	0	520.540756403934	520.740755233914
133411	100	780	21	1	43	24	11	0	0	0	0	stim012_stimuli_original_vehicles_boats_4.png	A	0	0	0	520.940763572231	521.140746310353
133511	100	781	21	1	43	25	4	5	0	0	0	stim005_stimuli_original_animals_fish_1.png	F	0	0	0	521.340762937907	521.540756647941
133611	100	782	21	1	43	26	8	1	0	0	0	stim009_stimuli_original_vehicles_boats_1.png	B	0	0	0	521.740783271845	521.940768935718
133711	100	783	21	1	43	27	6	7	0	0	0	stim007_stimuli_original_animals_fish_3.png	J	0	0	0	522.140774592292	522.341213741805
133811	100	784	21	1	43	28	1	12	0	0	0	stim002_stimuli_original_animals_birds_2.png	T	0	0	0	522.540779565927	522.740808384027
133911	100	785	21	1	43	29	5	5	0	1	0	stim006_stimuli_original_animals_fish_2.png	F	0	0	0	522.940798680764	523.140819209162
134011	100	786	21	1	43	30	3	11	0	0	0	stim004_stimuli_original_animals_birds_4.png	R	0	0	0	523.340826328378	523.540828327648
134111	100	787	21	1	43	31	9	5	0	1	1	stim010_stimuli_original_vehicles_boats_2.png	F	0	0	0	523.740822525229	523.94083939679
134211	100	788	21	1	43	32	10	13	0	0	0	stim011_stimuli_original_vehicles_boats_3.png	U	0	0	0	524.140846271999	524.340852903668
134311	100	789	21	1	43	33	13	2	0	0	0	stim014_stimuli_original_vehicles_planes_2.png	C	d	524.732625408098	1	524.540859779343	524.740860071965
134411	100	790	21	1	43	34	0	15	0	0	0	stim001_stimuli_original_animals_birds_1.png	Y	0	0	0	524.940867922269	525.140870409086
134511	100	791	21	1	43	35	12	4	0	0	0	stim013_stimuli_original_vehicles_planes_1.png	E	0	0	0	525.340880698059	525.540881722234
135523.5	100	792	22	0	40	0	11	14	0	0	0	stim012_stimuli_original_vehicles_boats_4.png	V	0	0	0	529.390969152097	529.590987730306
135623.5	100	793	22	0	40	1	8	0	0	0	0	stim009_stimuli_original_vehicles_boats_1.png	A	0	0	0	529.790995337069	529.990998799447
135723.5	100	794	22	0	40	2	6	2	0	0	0	stim007_stimuli_original_animals_fish_3.png	C	0	0	0	530.191005674656	530.391010112129
135823.5	100	795	22	0	40	3	9	6	0	0	0	stim010_stimuli_original_vehicles_boats_2.png	G	0	0	0	530.591042099986	530.79144175211
135923.5	100	796	22	0	40	4	2	7	1	0	0	stim003_stimuli_original_animals_birds_3.png	J	0	0	0	530.991025374737	531.191028105095
136023.5	100	797	22	0	40	5	14	4	0	0	0	stim015_stimuli_original_vehicles_planes_3.png	E	0	0	0	531.391038881615	531.591046732385
136123.5	100	798	22	0	40	6	2	13	1	1	1	stim003_stimuli_original_animals_birds_3.png	U	0	0	0	531.791045318358	531.991052193567
136223.5	100	799	22	0	40	7	4	9	0	0	0	stim005_stimuli_original_animals_fish_1.png	L	0	0	0	532.191060775891	532.391067163553
