onset	duration	eventnumber	sequencenumber	condition	streamnumber	stimnumber	objectstimnumber	letterstimnumber	objecttarget	lettertarget	is2back	objectstim	letterstim	response	rt	correct	time_stimon	time_stimoff
13.128	0.2	0	0	1	9	0	1	12	0	0	0	stim002_stimuli_original_animals_birds_2.png	T	0	0	0	59.4045118486683	59.6045113122964
13.528	0.2	1	0	1	9	1	8	7	0	0	0	stim009_stimuli_original_vehicles_boats_1.png	J	0	0	0	59.8045215035381	60.005365280871
13.928	0.2	2	0	1	9	2	5	5	0	0	0	stim006_stimuli_original_animals_fish_2.png	F	0	0	0	60.2045616346586	60.4045535401674
14.328	0.2	3	0	1	9	3	14	14	0	0	0	stim015_stimuli_original_vehicles_planes_3.png	V	0	0	0	60.6045739714173	60.8045758731605
14.728	0.2	4	0	1	9	4	4	6	1	0	0	stim005_stimuli_original_animals_fish_1.png	G	0	0	0	61.0045611957903	61.2045616346586
15.128	0.2	5	0	1	9	5	11	13	0	0	0	stim012_stimuli_original_vehicles_boats_4.png	U	0	0	0	61.4045759706642	61.6045976209862
15.528	0.2	6	0	1	9	6	4	15	1	1	0	stim005_stimuli_original_animals_fish_1.png	Y	0	0	0	61.804607812257	62.0046258054208
15.928	0.2	7	0	1	9	7	2	4	0	0	0	stim003_stimuli_original_animals_birds_3.png	E	0	0	0	62.2046225871309	62.4046261955227
16.328	0.2	8	0	1	9	8	3	15	0	1	1	stim004_stimuli_original_animals_birds_4.png	Y	0	0	0	62.6046295600827	62.8046307303885
16.728	0.2	9	0	1	9	9	13	3	0	0	0	stim014_stimuli_original_vehicles_planes_2.png	D	0	0	0	63.0046392149525	63.2046452614595
17.128	0.2	10	0	1	9	10	7	1	0	0	0	stim008_stimuli_original_animals_fish_4.png	B	NaN	63.3974859784939	1	63.4046556965041	63.6046585734584
17.528	0.2	11	0	1	9	11	9	15	0	0	0	stim010_stimuli_original_vehicles_boats_2.png	Y	0	0	0	63.8046692523349	64.0046638397616
17.928	0.2	12	0	1	9	12	10	9	0	0	0	stim011_stimuli_original_vehicles_boats_3.png	L	0	0	0	64.2046728119603	64.4046800775104
18.328	0.2	13	0	1	9	13	0	0	0	0	0	stim001_stimuli_original_animals_birds_1.png	A	0	0	0	64.6046849049453	64.8046843685443
18.728	0.2	14	0	1	9	14	15	11	0	0	0	stim016_stimuli_original_vehicles_planes_4.png	R	0	0	0	65.0047001674247	65.2047062139318
19.128	0.2	15	0	1	9	15	4	8	0	0	0	stim005_stimuli_original_animals_fish_1.png	K	0	0	0	65.4047129918472	65.6047017278324
19.528	0.2	16	0	1	9	16	6	10	0	0	0	stim007_stimuli_original_animals_fish_3.png	Q	0	0	0	65.8047224029142	66.0046923655318
19.928	0.2	17	0	1	9	17	12	2	0	0	0	stim013_stimuli_original_vehicles_planes_1.png	C	0	0	0	66.2047379092255	66.4047371290217
20.328	0.2	18	0	1	9	18	2	12	0	0	0	stim003_stimuli_original_animals_birds_3.png	T	0	0	0	66.6047280592902	66.8047360562487
20.728	0.2	19	0	1	9	19	10	6	0	0	0	stim011_stimuli_original_vehicles_boats_3.png	G	0	0	0	67.0047574627679	67.2047654597263
21.128	0.2	20	0	1	9	20	8	4	0	0	0	stim009_stimuli_original_vehicles_boats_1.png	E	0	0	0	67.4047676052724	67.6047704822267
21.528	0.2	21	0	1	9	21	11	15	0	0	0	stim012_stimuli_original_vehicles_boats_4.png	Y	0	0	0	67.804789206828	68.0047850132978
21.928	0.2	22	0	1	9	22	0	0	0	0	0	stim001_stimuli_original_animals_birds_1.png	A	0	0	0	68.2047925226216	68.4047795519582
22.328	0.2	23	0	1	9	23	9	10	0	0	0	stim010_stimuli_original_vehicles_boats_2.png	Q	0	0	0	68.6047992517997	68.8047884753905
22.728	0.2	24	0	1	9	24	15	9	0	0	0	stim016_stimuli_original_vehicles_planes_4.png	L	0	0	0	69.0048137828708	69.2048195855459
23.128	0.2	25	0	1	9	25	1	7	0	0	0	stim002_stimuli_original_animals_birds_2.png	J	0	0	0	69.4048090529395	69.6048129051342
23.528	0.2	26	0	1	9	26	3	13	0	0	0	stim004_stimuli_original_animals_birds_4.png	U	0	0	0	69.8048162697232	70.004808175232
23.928	0.2	27	0	1	9	27	15	3	1	0	0	stim016_stimuli_original_vehicles_planes_4.png	D	0	0	0	70.2048590827326	70.4048300205905
24.328	0.2	28	0	1	9	28	4	2	0	0	0	stim005_stimuli_original_animals_fish_1.png	C	0	0	0	70.6048584975943	70.8048486964253
24.728	0.2	29	0	1	9	29	15	4	1	1	0	stim016_stimuli_original_vehicles_planes_4.png	E	0	0	0	71.0048593753017	71.2048749303794
25.128	0.2	30	0	1	9	30	13	11	0	0	0	stim014_stimuli_original_vehicles_planes_2.png	R	0	0	0	71.4048807330546	71.6048843414464
25.528	0.2	31	0	1	9	31	6	4	0	1	1	stim007_stimuli_original_animals_fish_3.png	E	0	0	0	71.804875271715	72.00489814108
25.928	0.2	32	0	1	9	32	14	14	0	0	0	stim015_stimuli_original_vehicles_planes_3.png	V	NaN	72.3966684838524	1	72.2049027247122	72.4049104778678
26.328	0.2	33	0	1	9	33	5	5	0	0	0	stim006_stimuli_original_animals_fish_2.png	F	0	0	0	72.6049472443992	72.8049172070168
26.728	0.2	34	0	1	9	34	7	8	0	0	0	stim008_stimuli_original_animals_fish_4.png	K	0	0	0	73.00492569161	73.2049305190449
27.128	0.2	35	0	1	9	35	12	1	0	0	0	stim013_stimuli_original_vehicles_planes_1.png	B	0	0	0	73.4049397350464	73.6049448063131
30.695	0.2	36	1	0	31	0	8	3	0	0	0	stim009_stimuli_original_vehicles_boats_1.png	D	0	0	0	76.9717114675441	77.1717075178167
31.095	0.2	37	1	0	31	1	6	14	0	0	0	stim007_stimuli_original_animals_fish_3.png	V	0	0	0	77.3717011300032	77.5717047383951
31.495	0.2	38	1	0	31	2	7	13	0	0	0	stim008_stimuli_original_animals_fish_4.png	U	0	0	0	77.771741992532	77.9718840849528
31.895	0.2	39	1	0	31	3	11	11	0	0	0	stim012_stimuli_original_vehicles_boats_4.png	R	0	0	0	78.1717426264368	78.3717447719828
32.295	0.2	40	1	0	31	4	3	2	1	0	0	stim004_stimuli_original_animals_birds_4.png	C	0	0	0	78.5717537441815	78.7717241944047
32.695	0.2	41	1	0	31	5	0	12	0	0	0	stim001_stimuli_original_animals_birds_1.png	T	0	0	0	78.9717675438151	79.1717682264862
33.095	0.2	42	1	0	31	6	3	5	1	0	1	stim004_stimuli_original_animals_birds_4.png	F	0	0	0	79.3717581815145	79.5717771499185
33.495	0.2	43	1	0	31	7	10	15	0	0	0	stim011_stimuli_original_vehicles_boats_3.png	Y	0	0	0	79.7717902669101	79.9717926562298
33.895	0.2	44	1	0	31	8	4	8	0	0	0	stim005_stimuli_original_animals_fish_1.png	K	0	0	0	80.1717967522563	80.3717871948902
34.295	0.2	45	1	0	31	9	2	0	0	0	0	stim003_stimuli_original_animals_birds_3.png	A	NaN	80.5723747280135	1	80.5718125023704	80.7718019697932
34.695	0.2	46	1	0	31	10	9	12	0	1	0	stim010_stimuli_original_vehicles_boats_2.png	T	0	0	0	80.9718275210471	81.1718284475501
35.095	0.2	47	1	0	31	11	3	4	0	0	0	stim004_stimuli_original_animals_birds_4.png	E	0	0	0	81.3718174273381	81.5718410281406
35.495	0.2	48	1	0	31	12	15	12	0	1	0	stim016_stimuli_original_vehicles_planes_4.png	T	0	0	0	81.7718309831689	81.971853852534
35.895	0.2	49	1	0	31	13	12	1	0	0	0	stim013_stimuli_original_vehicles_planes_1.png	B	0	0	0	82.1718625809299	82.3718635074038
36.295	0.2	50	1	0	31	14	5	7	0	0	0	stim006_stimuli_original_animals_fish_2.png	J	0	0	0	82.5718529748265	82.7718604841502
36.696	0.2	51	1	0	31	15	13	9	0	0	0	stim014_stimuli_original_vehicles_planes_2.png	L	0	0	0	82.9722951484728	83.1718730647408
37.095	0.2	52	1	0	31	16	14	6	0	0	0	stim015_stimuli_original_vehicles_planes_3.png	G	0	0	0	83.3718949588656	83.5718978358491
37.495	0.2	53	1	0	31	17	1	10	0	0	0	stim002_stimuli_original_animals_birds_2.png	Q	0	0	0	83.7719063204131	83.9719060278439
37.895	0.2	54	1	0	31	18	10	1	0	0	0	stim011_stimuli_original_vehicles_boats_3.png	B	0	0	0	84.1719189010037	84.3719315303606
38.295	0.2	55	1	0	31	19	6	14	0	0	0	stim007_stimuli_original_animals_fish_3.png	V	0	0	0	84.5719297749456	84.7719328957028
38.695	0.2	56	1	0	31	20	9	13	0	0	0	stim010_stimuli_original_vehicles_boats_2.png	U	0	0	0	84.971939917421	85.1719544972584
39.095	0.2	57	1	0	31	21	7	5	0	0	0	stim008_stimuli_original_animals_fish_4.png	F	0	0	0	85.3719344560814	85.5719597635616
39.495	0.2	58	1	0	31	22	1	12	0	0	0	stim002_stimuli_original_animals_birds_2.png	T	0	0	0	85.7719484995469	85.9719499136263
39.895	0.2	59	1	0	31	23	12	15	1	0	0	stim013_stimuli_original_vehicles_planes_1.png	Y	0	0	0	86.1719779030245	86.3719932142703
40.295	0.2	60	1	0	31	24	4	3	0	0	0	stim005_stimuli_original_animals_fish_1.png	D	0	0	0	86.5719719540502	86.7719719052839
40.695	0.2	61	1	0	31	25	12	9	1	0	1	stim013_stimuli_original_vehicles_planes_1.png	L	0	0	0	86.9720020889654	87.1719998459157
41.095	0.2	62	1	0	31	26	0	2	0	0	0	stim001_stimuli_original_animals_birds_1.png	C	NaN	87.5637809163018	1	87.3720085743116	87.5720090131508
41.495	0.2	63	1	0	31	27	8	4	0	0	0	stim009_stimuli_original_vehicles_boats_1.png	E	0	0	0	87.7720211549022	87.9720235442219
41.896	0.2	64	1	0	31	28	15	10	0	0	0	stim016_stimuli_original_vehicles_planes_4.png	Q	0	0	0	88.1723743379116	88.3720463648206
42.295	0.2	65	1	0	31	29	5	3	0	1	0	stim006_stimuli_original_animals_fish_2.png	D	0	0	0	88.5720221788797	88.7720192044217
42.695	0.2	66	1	0	31	30	12	0	0	0	0	stim013_stimuli_original_vehicles_planes_1.png	A	0	0	0	88.9720264699426	89.1720317850122
43.095	0.2	67	1	0	31	31	2	3	0	1	0	stim003_stimuli_original_animals_birds_3.png	D	0	0	0	89.3720468524552	89.572066308494
43.495	0.2	68	1	0	31	32	11	11	0	0	0	stim012_stimuli_original_vehicles_boats_4.png	R	0	0	0	89.7720608958916	89.9720623100002
43.895	0.2	69	1	0	31	33	13	7	0	0	0	stim014_stimuli_original_vehicles_planes_2.png	J	0	0	0	90.1720890803263	90.3720717210672
44.295	0.2	70	1	0	31	34	14	6	0	0	0	stim015_stimuli_original_vehicles_planes_3.png	G	0	0	0	90.5720950780669	90.7721108769474
44.695	0.2	71	1	0	31	35	3	8	0	0	0	stim004_stimuli_original_animals_birds_4.png	K	0	0	0	90.9721120472241	91.172098588926
48.529	0.2	72	2	1	41	0	0	10	0	0	0	stim001_stimuli_original_animals_birds_1.png	Q	0	0	0	94.8055223432311	95.0055215630273
48.929	0.2	73	2	1	41	1	4	15	0	0	0	stim005_stimuli_original_animals_fish_1.png	Y	0	0	0	95.205564424803	95.4055309740943
49.329	0.2	74	2	1	41	2	14	12	0	0	0	stim015_stimuli_original_vehicles_planes_3.png	T	0	0	0	95.6055418967735	95.8055472118431
49.729	0.2	75	2	1	41	3	7	13	0	0	0	stim008_stimuli_original_animals_fish_4.png	U	0	0	0	96.0058609464322	96.2055927067704
50.129	0.2	76	2	1	41	4	3	8	1	0	0	stim004_stimuli_original_animals_birds_4.png	K	0	0	0	96.4055963151332	96.605603824486
50.529	0.2	77	2	1	41	5	12	14	0	1	0	stim013_stimuli_original_vehicles_planes_1.png	V	0	0	0	96.8055910976254	97.005576664058
50.929	0.2	78	2	1	41	6	3	3	1	0	0	stim004_stimuli_original_animals_birds_4.png	D	0	0	0	97.2056166001421	97.4056204523367
51.329	0.2	79	2	1	41	7	5	14	0	1	1	stim006_stimuli_original_animals_fish_2.png	V	0	0	0	97.6056108949706	97.8056335205329
51.729	0.2	80	2	1	41	8	1	5	0	0	0	stim002_stimuli_original_animals_birds_2.png	F	0	0	0	98.0056373727275	98.2056431754027
52.129	0.2	81	2	1	41	9	9	1	0	0	0	stim010_stimuli_original_vehicles_boats_2.png	B	NaN	98.3982561739977	1	98.4056272789894	98.605624792137
52.529	0.2	82	2	1	41	10	3	2	0	0	0	stim004_stimuli_original_animals_birds_4.png	C	0	0	0	98.8056652158266	99.0056629727769
52.929	0.2	83	2	1	41	11	10	11	0	0	0	stim011_stimuli_original_vehicles_boats_3.png	R	0	0	0	99.2056717011728	99.4056755533675
53.329	0.2	84	2	1	41	12	11	0	0	0	0	stim012_stimuli_original_vehicles_boats_4.png	A	0	0	0	99.6056857446092	99.8056579015392
53.729	0.2	85	2	1	41	13	6	14	0	0	0	stim007_stimuli_original_animals_fish_3.png	V	0	0	0	100.005668580416	100.205699007871
54.129	0.2	86	2	1	41	14	8	6	0	0	0	stim009_stimuli_original_vehicles_boats_1.png	G	0	0	0	100.405707492464	100.60567160364
54.529	0.2	87	2	1	41	15	13	9	0	0	0	stim014_stimuli_original_vehicles_planes_2.png	L	0	0	0	100.805715196853	101.005723681446
54.929	0.2	88	2	1	41	16	15	4	0	0	0	stim016_stimuli_original_vehicles_planes_4.png	E	0	0	0	101.205731922208	101.405735774402
55.329	0.2	89	2	1	41	17	2	7	0	0	0	stim003_stimuli_original_animals_birds_3.png	J	0	0	0	101.605739626597	101.80571495305
55.729	0.2	90	2	1	41	18	7	2	0	0	0	stim008_stimuli_original_animals_fish_4.png	C	0	0	0	102.005718561442	102.205728752684
56.129	0.2	91	2	1	41	19	4	15	0	0	0	stim005_stimuli_original_animals_fish_1.png	Y	0	0	0	102.405768201133	102.605775466654
56.529	0.2	92	2	1	41	20	9	13	0	0	0	stim010_stimuli_original_vehicles_boats_2.png	U	0	0	0	102.805779562681	103.005781464395
56.929	0.2	93	2	1	41	21	6	8	0	0	0	stim007_stimuli_original_animals_fish_3.png	K	0	0	0	103.205794337555	103.405797214509
57.329	0.2	94	2	1	41	22	14	6	0	0	0	stim015_stimuli_original_vehicles_planes_3.png	G	0	0	0	103.605804480059	103.80578321981
57.729	0.2	95	2	1	41	23	0	11	0	0	0	stim001_stimuli_original_animals_birds_1.png	R	0	0	0	104.005793167278	104.205806284241
58.129	0.2	96	2	1	41	24	11	10	0	0	0	stim012_stimuli_original_vehicles_boats_4.png	Q	0	0	0	104.405804041191	104.605815451505
58.529	0.2	97	2	1	41	25	2	3	0	0	0	stim003_stimuli_original_animals_birds_3.png	D	0	0	0	104.805841734196	105.005861921672
58.929	0.2	98	2	1	41	26	1	9	0	0	0	stim002_stimuli_original_animals_birds_2.png	L	0	0	0	105.20583090905	105.4058513403
59.329	0.2	99	2	1	41	27	5	1	0	0	0	stim006_stimuli_original_animals_fish_2.png	B	0	0	0	105.605843002006	105.805864896131
59.729	0.2	100	2	1	41	28	14	5	1	0	0	stim015_stimuli_original_vehicles_planes_3.png	F	0	0	0	106.005873624526	106.205855290027
60.129	0.2	101	2	1	41	29	3	3	0	1	0	stim004_stimuli_original_animals_birds_4.png	D	0	0	0	106.405874258431	106.605887375423
60.529	0.2	102	2	1	41	30	14	12	1	0	0	stim015_stimuli_original_vehicles_planes_3.png	T	NaN	106.997643577197	0	106.805879037129	107.00589776173
60.929	0.2	103	2	1	41	31	8	3	0	1	1	stim009_stimuli_original_vehicles_boats_1.png	D	0	0	0	107.205884791038	107.405876696546
61.329	0.2	104	2	1	41	32	13	7	0	0	0	stim014_stimuli_original_vehicles_planes_2.png	J	0	0	0	107.605885424942	107.805891227617
61.729	0.2	105	2	1	41	33	12	14	0	0	0	stim013_stimuli_original_vehicles_planes_1.png	V	NaN	108.206397035654	1	108.005902394099	108.20591819298
62.129	0.2	106	2	1	41	34	15	4	0	0	0	stim016_stimuli_original_vehicles_planes_4.png	E	0	0	0	108.405920094694	108.605905417353
62.529	0.2	107	2	1	41	35	10	0	0	0	0	stim011_stimuli_original_vehicles_boats_3.png	A	0	0	0	108.805921947671	109.005918485549
68.696	0.2	108	3	0	9	0	1	12	0	0	0	stim002_stimuli_original_animals_birds_2.png	T	0	0	0	114.972772040637	115.172774917621
69.096	0.2	109	3	0	9	1	8	7	0	0	0	stim009_stimuli_original_vehicles_boats_1.png	J	0	0	0	115.372801687947	115.57282528872
69.496	0.2	110	3	0	9	2	5	5	0	0	0	stim006_stimuli_original_animals_fish_2.png	F	0	0	0	115.772817438061	115.972798372124
69.896	0.2	111	3	0	9	3	14	14	0	0	0	stim015_stimuli_original_vehicles_planes_3.png	V	0	0	0	116.172829043411	116.372811196517
70.296	0.2	112	3	0	9	4	4	6	1	0	0	stim005_stimuli_original_animals_fish_1.png	G	0	0	0	116.572840648761	116.773116836615
70.696	0.2	113	3	0	9	5	11	13	0	0	0	stim012_stimuli_original_vehicles_boats_4.png	U	0	0	0	116.972839088383	117.17285171774
71.096	0.2	114	3	0	9	6	4	15	1	1	1	stim005_stimuli_original_animals_fish_1.png	Y	0	0	0	117.372862640419	117.572867711657
71.496	0.2	115	3	0	9	7	2	4	0	0	0	stim003_stimuli_original_animals_birds_3.png	E	0	0	0	117.772870832414	117.972860543639
71.896	0.2	116	3	0	9	8	3	15	0	1	0	stim004_stimuli_original_animals_birds_4.png	Y	NaN	118.165455500304	1	118.17286878443	118.372873855667
72.296	0.2	117	3	0	9	9	13	3	0	0	0	stim014_stimuli_original_vehicles_planes_2.png	D	0	0	0	118.57288136502	118.772900333424
72.696	0.2	118	3	0	9	10	7	1	0	0	0	stim008_stimuli_original_animals_fish_4.png	B	0	0	0	118.972908574186	119.172893653042
73.096	0.2	119	3	0	9	11	9	15	0	0	0	stim010_stimuli_original_vehicles_boats_2.png	Y	0	0	0	119.372919204325	119.572905258392
73.496	0.2	120	3	0	9	12	10	9	0	0	0	stim011_stimuli_original_vehicles_boats_3.png	L	0	0	0	119.77291130487	119.972914913262
73.896	0.2	121	3	0	9	13	0	0	0	0	0	stim001_stimuli_original_animals_birds_1.png	A	0	0	0	120.172941683588	120.372928956698
74.296	0.2	122	3	0	9	14	15	11	0	0	0	stim016_stimuli_original_vehicles_planes_4.png	R	0	0	0	120.572927688889	120.772933979199
74.696	0.2	123	3	0	9	15	4	8	0	0	0	stim005_stimuli_original_animals_fish_1.png	K	0	0	0	120.972949046642	121.172972891247
75.096	0.2	124	3	0	9	16	6	10	0	0	0	stim007_stimuli_original_animals_fish_3.png	Q	0	0	0	121.372966015828	121.572979376593
75.496	0.2	125	3	0	9	17	12	2	0	0	0	stim013_stimuli_original_vehicles_planes_1.png	C	0	0	0	121.772960310656	121.972974890494
75.896	0.2	126	3	0	9	18	2	12	0	0	0	stim003_stimuli_original_animals_birds_3.png	T	0	0	0	122.173003123695	122.372986008239
76.296	0.2	127	3	0	9	19	10	6	0	0	0	stim011_stimuli_original_vehicles_boats_3.png	G	0	0	0	122.572987178515	122.772984691663
76.696	0.2	128	3	0	9	20	8	4	0	0	0	stim009_stimuli_original_vehicles_boats_1.png	E	0	0	0	122.973001465783	123.17302921135
77.096	0.2	129	3	0	9	21	11	15	0	0	0	stim012_stimuli_original_vehicles_boats_4.png	Y	0	0	0	123.37303355115	123.57300668332
77.496	0.2	130	3	0	9	22	0	0	0	0	0	stim001_stimuli_original_animals_birds_1.png	A	0	0	0	123.773022969806	123.973038768687
77.896	0.2	131	3	0	9	23	9	10	0	0	0	stim010_stimuli_original_vehicles_boats_2.png	Q	0	0	0	124.173048959958	124.373056469281
78.296	0.2	132	3	0	9	24	15	9	0	0	0	stim016_stimuli_original_vehicles_planes_4.png	L	0	0	0	124.573071536754	124.773068806069
78.696	0.2	133	3	0	9	25	1	7	0	0	0	stim002_stimuli_original_animals_birds_2.png	J	0	0	0	124.973057785857	125.17308138666
79.096	0.2	134	3	0	9	26	3	13	0	0	0	stim004_stimuli_original_animals_birds_4.png	U	0	0	0	125.373088408378	125.573074218642
79.496	0.2	135	3	0	9	27	15	3	1	0	0	stim016_stimuli_original_vehicles_planes_4.png	D	0	0	0	125.773095137556	125.973096795438
79.896	0.2	136	3	0	9	28	4	2	0	0	0	stim005_stimuli_original_animals_fish_1.png	C	0	0	0	126.173113325756	126.373110351269
80.296	0.2	137	3	0	9	29	15	4	1	1	1	stim016_stimuli_original_vehicles_planes_4.png	E	0	0	0	126.573116397776	126.773094649921
80.696	0.2	138	3	0	9	30	13	11	0	0	0	stim014_stimuli_original_vehicles_planes_2.png	R	0	0	0	126.973115812638	127.173135268647
81.096	0.2	139	3	0	9	31	6	4	0	1	0	stim007_stimuli_original_animals_fish_3.png	E	0	0	0	127.373364157393	127.5731195673
81.496	0.2	140	3	0	9	32	14	14	0	0	0	stim015_stimuli_original_vehicles_planes_3.png	V	0	0	0	127.773120737576	127.973125321208
81.896	0.2	141	3	0	9	33	5	5	0	0	0	stim006_stimuli_original_animals_fish_2.png	F	0	0	0	128.173171108705	128.373139608477
82.296	0.2	142	3	0	9	34	7	8	0	0	0	stim008_stimuli_original_animals_fish_4.png	K	0	0	0	128.573180519772	128.77316949956
82.696	0.2	143	3	0	9	35	12	1	0	0	0	stim013_stimuli_original_vehicles_planes_1.png	B	0	0	0	128.973187005118	129.173193295399
85.48	0.2	144	4	1	44	0	0	1	0	0	0	stim001_stimuli_original_animals_birds_1.png	B	0	0	0	131.756580185669	131.956628411252
85.88	0.2	145	4	1	44	1	13	5	0	0	0	stim014_stimuli_original_vehicles_planes_2.png	F	0	0	0	132.156611539598	132.35661709847
86.28	0.2	146	4	1	44	2	2	3	0	0	0	stim003_stimuli_original_animals_birds_3.png	D	0	0	0	132.556624851626	132.75660773617
86.68	0.2	147	4	1	44	3	4	14	0	0	0	stim005_stimuli_original_animals_fish_1.png	V	0	0	0	132.956635481736	133.156639333931
87.08	0.2	148	4	1	44	4	1	0	0	0	0	stim002_stimuli_original_animals_birds_2.png	A	0	0	0	133.356630264199	133.556648501195
87.48	0.2	149	4	1	44	5	3	10	0	0	0	stim004_stimuli_original_animals_birds_4.png	Q	0	0	0	133.756628460018	133.956631580775
87.88	0.2	150	4	1	44	6	12	15	0	0	0	stim013_stimuli_original_vehicles_planes_1.png	Y	0	0	0	134.156672004465	134.356657814729
88.28	0.2	151	4	1	44	7	7	9	0	0	0	stim008_stimuli_original_animals_fish_4.png	L	0	0	0	134.557113446703	134.756673077238
88.68	0.2	152	4	1	44	8	8	11	0	0	0	stim009_stimuli_original_vehicles_boats_1.png	R	0	0	0	134.956691558036	135.15667541782
89.08	0.2	153	4	1	44	9	12	2	1	0	0	stim013_stimuli_original_vehicles_planes_1.png	C	0	0	0	135.356710233871	135.556707015581
89.48	0.2	154	4	1	44	10	11	8	0	0	0	stim012_stimuli_original_vehicles_boats_4.png	K	0	0	0	135.756697702047	135.9566861942
89.88	0.2	155	4	1	44	11	12	9	1	1	0	stim013_stimuli_original_vehicles_planes_1.png	L	0	0	0	136.156697360711	136.356698530988
90.28	0.2	156	4	1	44	12	15	4	0	0	0	stim016_stimuli_original_vehicles_planes_4.png	E	NaN	136.748478869966	0	136.556709453667	136.756710380141
90.68	0.2	157	4	1	44	13	6	9	0	1	1	stim007_stimuli_original_animals_fish_3.png	L	0	0	0	136.956753973354	137.156722960732
91.08	0.2	158	4	1	44	14	14	12	0	0	0	stim015_stimuli_original_vehicles_planes_3.png	T	0	0	0	137.356735833891	137.556735053717
91.48	0.2	159	4	1	44	15	5	13	0	0	0	stim006_stimuli_original_animals_fish_2.png	U	NaN	137.749323427503	1	137.756743782113	137.956753973354
91.88	0.2	160	4	1	44	16	10	6	0	0	0	stim011_stimuli_original_vehicles_boats_3.png	G	0	0	0	138.15678927704	138.35675655774
92.28	0.2	161	4	1	44	17	9	7	0	0	0	stim010_stimuli_original_vehicles_boats_2.png	J	0	0	0	138.556771625212	138.756770845008
92.68	0.2	162	4	1	44	18	7	9	0	0	0	stim008_stimuli_original_animals_fish_4.png	L	0	0	0	138.956809318217	139.156783181796
93.08	0.2	163	4	1	44	19	6	10	0	0	0	stim007_stimuli_original_animals_fish_3.png	Q	0	0	0	139.356795323518	139.556793568103
93.48	0.2	164	4	1	44	20	13	5	0	0	0	stim014_stimuli_original_vehicles_planes_2.png	F	0	0	0	139.756828384154	139.957137242542
93.88	0.2	165	4	1	44	21	12	14	0	0	0	stim013_stimuli_original_vehicles_planes_1.png	V	0	0	0	140.156822435179	140.356816291169
94.28	0.2	166	4	1	44	22	9	6	1	0	0	stim010_stimuli_original_vehicles_boats_2.png	G	0	0	0	140.556824531959	140.756857153727
94.68	0.2	167	4	1	44	23	4	15	0	0	0	stim005_stimuli_original_animals_fish_1.png	Y	0	0	0	140.956868076406	141.156872172403
95.08	0.2	168	4	1	44	24	9	12	1	1	0	stim010_stimuli_original_vehicles_boats_2.png	T	0	0	0	141.356866272195	141.55688158347
95.48	0.2	169	4	1	44	25	8	11	0	0	0	stim009_stimuli_original_vehicles_boats_1.png	R	0	0	0	141.756890555669	141.956884167856
95.88	0.2	170	4	1	44	26	2	12	0	1	1	stim003_stimuli_original_animals_birds_3.png	T	0	0	0	142.156889970531	142.356905769411
96.28	0.2	171	4	1	44	27	11	8	0	0	0	stim012_stimuli_original_vehicles_boats_4.png	K	NaN	142.748683182668	1	142.556914985413	142.756921275723
96.68	0.2	172	4	1	44	28	9	7	0	0	0	stim010_stimuli_original_vehicles_boats_2.png	J	0	0	0	142.956926590763	143.156913132465
97.08	0.2	173	4	1	44	29	15	12	0	0	0	stim016_stimuli_original_vehicles_planes_4.png	T	0	0	0	143.356911620853	143.556908890168
97.48	0.2	174	4	1	44	30	10	3	0	0	0	stim011_stimuli_original_vehicles_boats_3.png	D	0	0	0	143.756936879567	143.956947802246
97.88	0.2	175	4	1	44	31	0	1	0	0	0	stim001_stimuli_original_animals_birds_1.png	B	0	0	0	144.156936050596	144.356945022795
98.28	0.2	176	4	1	44	32	14	4	0	0	0	stim015_stimuli_original_vehicles_planes_3.png	E	0	0	0	144.556947412144	144.756955409102
98.68	0.2	177	4	1	44	33	3	2	0	0	0	stim004_stimuli_original_animals_birds_4.png	C	0	0	0	144.956983642303	145.15699529642
99.08	0.2	178	4	1	44	34	5	13	0	0	0	stim006_stimuli_original_animals_fish_2.png	U	0	0	0	145.35698159429	145.556976181717
99.48	0.2	179	4	1	44	35	1	0	0	0	0	stim002_stimuli_original_animals_birds_2.png	A	0	0	0	145.756981984392	145.956984373712
102.747	0.2	180	5	0	3	0	4	0	0	0	0	stim005_stimuli_original_animals_fish_1.png	A	0	0	0	149.023732212838	149.223738259316
103.147	0.2	181	5	0	3	1	9	2	0	0	0	stim010_stimuli_original_vehicles_boats_2.png	C	0	0	0	149.423748206755	149.62377692759
103.547	0.2	182	5	0	3	2	2	4	0	0	0	stim003_stimuli_original_animals_birds_3.png	E	0	0	0	149.823783949309	150.023781218624
103.947	0.2	183	5	0	3	3	13	6	0	0	0	stim014_stimuli_original_vehicles_planes_2.png	G	0	0	0	150.223809451825	150.423805014463
104.347	0.2	184	5	0	3	4	0	1	1	0	0	stim001_stimuli_original_animals_birds_1.png	B	0	0	0	150.623770588514	150.823803941719
104.747	0.2	185	5	0	3	5	15	9	0	0	0	stim016_stimuli_original_vehicles_planes_4.png	L	0	0	0	151.023809012957	151.223829931841
105.147	0.2	186	5	0	3	6	0	8	1	0	1	stim001_stimuli_original_animals_birds_1.png	K	0	0	0	151.423834515474	151.623857141036
105.547	0.2	187	5	0	3	7	11	7	0	0	0	stim012_stimuli_original_vehicles_boats_4.png	J	0	0	0	151.8238429513	152.023852167302
105.947	0.2	188	5	0	3	8	6	5	0	0	0	stim007_stimuli_original_animals_fish_3.png	F	0	0	0	152.223856994737	152.423838172632
106.347	0.2	189	5	0	3	9	14	12	0	0	0	stim015_stimuli_original_vehicles_planes_3.png	T	0	0	0	152.623853971512	152.823871233239
106.747	0.2	190	5	0	3	10	12	3	0	0	0	stim013_stimuli_original_vehicles_planes_1.png	D	0	0	0	153.023870453064	153.223869429057
107.147	0.2	191	5	0	3	11	10	9	0	1	0	stim011_stimuli_original_vehicles_boats_3.png	L	0	0	0	153.423895955581	153.623876645841
107.547	0.2	192	5	0	3	12	0	11	0	0	0	stim001_stimuli_original_animals_birds_1.png	R	0	0	0	153.823885374237	154.023906049319
107.947	0.2	193	5	0	3	13	1	9	0	1	0	stim002_stimuli_original_animals_birds_2.png	L	0	0	0	154.223912339599	154.42389961271
108.347	0.2	194	5	0	3	14	3	13	0	0	0	stim004_stimuli_original_animals_birds_4.png	U	0	0	0	154.623908341106	154.823897077091
108.747	0.2	195	5	0	3	15	5	10	0	0	0	stim006_stimuli_original_animals_fish_2.png	Q	0	0	0	155.023915314086	155.223934770125
109.147	0.2	196	5	0	3	16	7	15	0	0	0	stim008_stimuli_original_animals_fish_4.png	Y	0	0	0	155.423944473732	155.623946619278
109.547	0.2	197	5	0	3	17	8	14	0	0	0	stim009_stimuli_original_vehicles_boats_1.png	V	0	0	0	155.82393779335	156.023931161733
109.947	0.2	198	5	0	3	18	14	8	0	0	0	stim015_stimuli_original_vehicles_planes_3.png	K	0	0	0	156.223936476774	156.423970561416
110.347	0.2	199	5	0	3	19	15	7	0	0	0	stim016_stimuli_original_vehicles_planes_4.png	J	0	0	0	156.623976607894	156.823990212491
110.747	0.2	200	5	0	3	20	10	5	0	0	0	stim011_stimuli_original_vehicles_boats_3.png	F	0	0	0	157.023990895163	157.223992553074
111.147	0.2	201	5	0	3	21	13	3	0	0	0	stim014_stimuli_original_vehicles_planes_2.png	D	0	0	0	157.424003963359	157.623992699344
111.547	0.2	202	5	0	3	22	9	1	1	0	0	stim010_stimuli_original_vehicles_boats_2.png	B	0	0	0	157.824015812512	158.02399918469
111.947	0.2	203	5	0	3	23	11	0	0	0	0	stim012_stimuli_original_vehicles_boats_4.png	A	0	0	0	158.224280248745	158.4240098148
112.347	0.2	204	5	0	3	24	9	10	1	0	1	stim010_stimuli_original_vehicles_boats_2.png	Q	0	0	0	158.624002207944	158.824027271592
112.747	0.2	205	5	0	3	25	3	12	0	0	0	stim004_stimuli_original_animals_birds_4.png	T	0	0	0	159.024013325659	159.224030587415
113.147	0.2	206	5	0	3	26	12	14	0	0	0	stim013_stimuli_original_vehicles_planes_1.png	V	0	0	0	159.424057845346	159.624044874654
113.547	0.2	207	5	0	3	27	5	6	0	0	0	stim006_stimuli_original_animals_fish_2.png	G	0	0	0	159.824067987851	160.024070133368
113.947	0.2	208	5	0	3	28	7	11	0	0	0	stim008_stimuli_original_animals_fish_4.png	R	0	0	0	160.224082762725	160.424088077794
114.347	0.2	209	5	0	3	29	8	0	0	1	0	stim009_stimuli_original_vehicles_boats_1.png	A	0	0	0	160.624091198551	160.824093344068
114.747	0.2	210	5	0	3	30	9	15	0	0	0	stim010_stimuli_original_vehicles_boats_2.png	Y	0	0	0	161.024080861011	161.224086663686
115.147	0.2	211	5	0	3	31	1	0	0	1	0	stim002_stimuli_original_animals_birds_2.png	A	0	0	0	161.424099780648	161.624118261447
115.547	0.2	212	5	0	3	32	6	13	0	0	0	stim007_stimuli_original_animals_fish_3.png	U	0	0	0	161.82412674604	162.024111581064
115.947	0.2	213	5	0	3	33	4	2	0	0	0	stim005_stimuli_original_animals_fish_1.png	C	0	0	0	162.224145665677	162.424142447388
116.347	0.2	214	5	0	3	34	2	9	0	0	0	stim003_stimuli_original_animals_birds_3.png	L	0	0	0	162.624126794806	162.824130890804
116.747	0.2	215	5	0	3	35	0	4	0	0	0	stim001_stimuli_original_animals_birds_1.png	E	0	0	0	163.024161074456	163.224165414285
121.097	0.2	216	6	1	30	0	11	2	0	0	0	stim012_stimuli_original_vehicles_boats_4.png	C	0	0	0	167.374287221726	167.574258159584
121.497	0.2	217	6	1	30	1	9	8	0	0	0	stim010_stimuli_original_vehicles_boats_2.png	K	0	0	0	167.774266644148	167.974268545891
121.897	0.2	218	6	1	30	2	7	10	0	0	0	stim008_stimuli_original_animals_fish_4.png	Q	0	0	0	168.174309457187	168.374313065578
122.297	0.2	219	6	1	30	3	1	4	0	0	0	stim002_stimuli_original_animals_birds_2.png	E	0	0	0	168.574302532972	168.774301265163
122.697	0.2	220	6	1	30	4	5	13	0	0	0	stim006_stimuli_original_animals_fish_2.png	U	0	0	0	168.974313163082	169.174334081996
123.097	0.2	221	6	1	30	5	8	5	1	0	0	stim009_stimuli_original_vehicles_boats_1.png	F	0	0	0	169.374318429385	169.574319112056
123.497	0.2	222	6	1	30	6	15	10	0	1	0	stim016_stimuli_original_vehicles_planes_4.png	Q	0	0	0	169.774325646169	169.974354366976
123.897	0.2	223	6	1	30	7	8	3	1	0	0	stim009_stimuli_original_vehicles_boats_1.png	D	0	0	0	170.174362607737	170.37434451704
124.297	0.2	224	6	1	30	8	6	10	0	1	1	stim007_stimuli_original_animals_fish_3.png	Q	0	0	0	170.574348125432	170.77438269768
124.697	0.2	225	6	1	30	9	14	6	0	0	0	stim015_stimuli_original_vehicles_planes_3.png	G	0	0	0	170.974395327037	171.174398691597
125.097	0.2	226	6	1	30	10	4	1	0	0	0	stim005_stimuli_original_animals_fish_1.png	B	NaN	171.366992185387	1	171.374386696174	171.574389085494
125.497	0.2	227	6	1	30	11	0	7	0	0	0	stim001_stimuli_original_animals_birds_1.png	J	0	0	0	171.774413905339	171.974419951846
125.897	0.2	228	6	1	30	12	12	9	0	0	0	stim013_stimuli_original_vehicles_planes_1.png	L	0	0	0	172.174425998324	172.374866026454
126.297	0.2	229	6	1	30	13	3	0	0	0	0	stim004_stimuli_original_animals_birds_4.png	A	0	0	0	172.574442236073	172.774420488218
126.697	0.2	230	6	1	30	14	2	14	0	0	0	stim003_stimuli_original_animals_birds_3.png	V	0	0	0	172.974419220409	173.174462569819
127.097	0.2	231	6	1	30	15	10	15	0	0	0	stim011_stimuli_original_vehicles_boats_3.png	Y	0	0	0	173.374428143841	173.574432727473
127.497	0.2	232	6	1	30	16	13	11	0	0	0	stim014_stimuli_original_vehicles_planes_2.png	R	0	0	0	173.774453890161	173.974477003358
127.897	0.2	233	6	1	30	17	8	12	0	0	0	stim009_stimuli_original_vehicles_boats_1.png	T	0	0	0	174.174484025076	174.374485682987
128.297	0.2	234	6	1	30	18	12	8	0	0	0	stim013_stimuli_original_vehicles_planes_1.png	K	0	0	0	174.574480514217	174.774499238818
128.697	0.2	235	6	1	30	19	11	13	0	0	0	stim012_stimuli_original_vehicles_boats_4.png	U	0	0	0	174.974492119567	175.174513769889
129.097	0.2	236	6	1	30	20	15	10	0	0	0	stim016_stimuli_original_vehicles_planes_4.png	Q	0	0	0	175.374506163003	175.574489778985
129.497	0.2	237	6	1	30	21	14	2	0	0	0	stim015_stimuli_original_vehicles_planes_3.png	C	0	0	0	175.774527033151	175.974539174873
129.897	0.2	238	6	1	30	22	0	3	0	0	0	stim001_stimuli_original_animals_birds_1.png	D	0	0	0	176.174543758505	176.374549804983
130.297	0.2	239	6	1	30	23	9	12	0	0	0	stim010_stimuli_original_vehicles_boats_2.png	T	0	0	0	176.574536102882	176.774554583651
130.697	0.2	240	6	1	30	24	7	0	0	0	0	stim008_stimuli_original_animals_fish_4.png	A	0	0	0	176.974564774922	177.17456789568
131.097	0.2	241	6	1	30	25	1	4	0	0	0	stim002_stimuli_original_animals_birds_2.png	E	0	0	0	177.374554437381	177.57455585149
131.497	0.2	242	6	1	30	26	6	14	0	0	0	stim007_stimuli_original_animals_fish_3.png	V	0	0	0	177.774576770375	177.974588668294
131.897	0.2	243	6	1	30	27	10	6	1	0	0	stim011_stimuli_original_vehicles_boats_3.png	G	0	0	0	178.174596909055	178.374598810769
132.297	0.2	244	6	1	30	28	3	8	0	1	0	stim004_stimuli_original_animals_birds_4.png	K	0	0	0	178.5746080268	178.774611635192
132.697	0.2	245	6	1	30	29	10	15	1	0	0	stim011_stimuli_original_vehicles_boats_3.png	Y	0	0	0	178.97462719027	179.174622265302
133.097	0.2	246	6	1	30	30	5	8	0	1	1	stim006_stimuli_original_animals_fish_2.png	K	0	0	0	179.374629530823	179.574631676369
133.497	0.2	247	6	1	30	31	13	5	0	0	0	stim014_stimuli_original_vehicles_planes_2.png	F	0	0	0	179.774643330486	179.97464620744
133.897	0.2	248	6	1	30	32	4	1	0	0	0	stim005_stimuli_original_animals_fish_1.png	B	NaN	180.167268714606	1	180.174656642484	180.374658056593
134.297	0.2	249	6	1	30	33	10	7	0	0	0	stim011_stimuli_original_vehicles_boats_3.png	J	0	0	0	180.574665809749	180.774670637184
134.697	0.2	250	6	1	30	34	8	9	0	0	0	stim009_stimuli_original_vehicles_boats_1.png	L	0	0	0	180.974664493173	181.174690775893
135.097	0.2	251	6	1	30	35	2	11	0	0	0	stim003_stimuli_original_animals_birds_3.png	R	0	0	0	181.374687069969	181.574680925958
138.231	0.2	252	7	0	12	0	10	10	0	0	0	stim011_stimuli_original_vehicles_boats_3.png	Q	0	0	0	184.508086930902	184.708095903101
138.631	0.2	253	7	0	12	1	15	6	0	0	0	stim016_stimuli_original_vehicles_planes_4.png	G	0	0	0	184.908125355345	185.108121161815
139.031	0.2	254	7	0	12	2	3	2	0	0	0	stim004_stimuli_original_animals_birds_4.png	C	0	0	0	185.308134034975	185.508119601436
139.431	0.2	255	7	0	12	3	1	13	0	0	0	stim002_stimuli_original_animals_birds_2.png	U	0	0	0	185.708144665085	185.908146322996
139.831	0.2	256	7	0	12	4	8	1	0	0	0	stim009_stimuli_original_vehicles_boats_1.png	B	0	0	0	186.108151394234	186.30815353978
140.231	0.2	257	7	0	12	5	4	7	1	1	0	stim005_stimuli_original_animals_fish_1.png	J	0	0	0	186.508132523362	186.70816514513
140.631	0.2	258	7	0	12	6	11	12	0	0	0	stim012_stimuli_original_vehicles_boats_4.png	T	0	0	0	186.908149736322	187.108160902833
141.031	0.2	259	7	0	12	7	4	7	1	1	1	stim005_stimuli_original_animals_fish_1.png	J	0	0	0	187.308168168354	187.508187624393
141.431	0.2	260	7	0	12	8	2	5	0	0	0	stim003_stimuli_original_animals_birds_3.png	F	NaN	187.700787701062	1	187.708177579421	187.908177043049
141.831	0.2	261	7	0	12	9	9	9	0	0	0	stim010_stimuli_original_vehicles_boats_2.png	L	0	0	0	188.108178457129	188.308181577915
142.231	0.2	262	7	0	12	10	6	7	0	0	0	stim007_stimuli_original_animals_fish_3.png	J	0	0	0	188.508204203477	188.708209030912
142.631	0.2	263	7	0	12	11	4	4	0	0	0	stim005_stimuli_original_animals_fish_1.png	E	0	0	0	188.908233850758	189.108233070554
143.031	0.2	264	7	0	12	12	0	11	0	0	0	stim001_stimuli_original_animals_birds_1.png	R	0	0	0	189.308247650391	189.508220051124
143.431	0.2	265	7	0	12	13	7	14	0	0	0	stim008_stimuli_original_animals_fish_4.png	V	0	0	0	189.708239507134	189.908244334569
143.831	0.2	266	7	0	12	14	12	3	0	0	0	stim013_stimuli_original_vehicles_planes_1.png	D	0	0	0	190.108249893441	190.308270812326
144.231	0.2	267	7	0	12	15	13	8	0	0	0	stim014_stimuli_original_vehicles_planes_2.png	K	0	0	0	190.508681339474	190.708286806272
144.631	0.2	268	7	0	12	16	5	0	0	0	0	stim006_stimuli_original_animals_fish_2.png	A	0	0	0	190.908291877509	191.10829158494
145.031	0.2	269	7	0	12	17	14	15	0	0	0	stim015_stimuli_original_vehicles_planes_3.png	Y	0	0	0	191.308298850461	191.508304653165
145.431	0.2	270	7	0	12	18	15	14	0	0	0	stim016_stimuli_original_vehicles_planes_4.png	V	0	0	0	191.708290463401	191.908318208996
145.831	0.2	271	7	0	12	19	0	5	0	0	0	stim001_stimuli_original_animals_birds_1.png	F	0	0	0	192.108302556386	192.308308359061
146.231	0.2	272	7	0	12	20	8	13	0	0	0	stim009_stimuli_original_vehicles_boats_1.png	U	0	0	0	192.508314649371	192.708318501565
146.631	0.2	273	7	0	12	21	3	12	0	0	0	stim004_stimuli_original_animals_birds_4.png	T	0	0	0	192.908350148093	193.108347905043
147.031	0.2	274	7	0	12	22	14	7	0	0	0	stim015_stimuli_original_vehicles_planes_3.png	J	0	0	0	193.308340298157	193.508359997999
147.431	0.2	275	7	0	12	23	11	0	0	0	0	stim012_stimuli_original_vehicles_boats_4.png	A	0	0	0	193.708372139721	193.908373310027
147.831	0.2	276	7	0	12	24	4	4	0	0	0	stim005_stimuli_original_animals_fish_1.png	E	0	0	0	194.108352781215	194.308367361053
148.231	0.2	277	7	0	12	25	7	6	0	0	0	stim008_stimuli_original_animals_fish_4.png	G	0	0	0	194.508397300931	194.708381892124
148.631	0.2	278	7	0	12	26	9	9	0	0	0	stim010_stimuli_original_vehicles_boats_2.png	L	0	0	0	194.908385500516	195.108388621273
149.031	0.2	279	7	0	12	27	5	2	0	0	0	stim006_stimuli_original_animals_fish_2.png	C	0	0	0	195.308397349669	195.508420462866
149.431	0.2	280	7	0	12	28	7	4	1	1	0	stim008_stimuli_original_animals_fish_4.png	E	0	0	0	195.70840724837	195.908848007908
149.831	0.2	281	7	0	12	29	12	11	0	0	0	stim013_stimuli_original_vehicles_planes_1.png	R	0	0	0	196.108435676608	196.308444648806
150.231	0.2	282	7	0	12	30	7	4	1	1	1	stim008_stimuli_original_animals_fish_4.png	E	0	0	0	196.508446794323	196.708443819836
150.631	0.2	283	7	0	12	31	1	8	0	0	0	stim002_stimuli_original_animals_birds_2.png	K	0	0	0	196.908457180631	197.108453230903
151.031	0.2	284	7	0	12	32	13	1	0	0	0	stim014_stimuli_original_vehicles_planes_2.png	B	NaN	197.30865188723	1	197.308463178342	197.508470687695
151.431	0.2	285	7	0	12	33	2	3	0	0	0	stim003_stimuli_original_animals_birds_3.png	D	0	0	0	197.70847453989	197.908483268286
151.831	0.2	286	7	0	12	34	6	15	0	0	0	stim007_stimuli_original_animals_fish_3.png	Y	0	0	0	198.108488095721	198.308470005024
152.231	0.2	287	7	0	12	35	10	10	0	0	0	stim011_stimuli_original_vehicles_boats_3.png	Q	0	0	0	198.50848921726	198.708508917101
155.381	0.2	288	8	1	47	0	14	0	0	0	0	stim015_stimuli_original_vehicles_planes_3.png	A	0	0	0	201.65858054845	201.858578061598
155.781	0.2	289	8	1	47	1	6	15	0	0	0	stim007_stimuli_original_animals_fish_3.png	Y	0	0	0	202.058576549956	202.258590642188
156.181	0.2	290	8	1	47	2	9	4	0	0	0	stim010_stimuli_original_vehicles_boats_2.png	E	0	0	0	202.458598151512	202.658591763698
156.581	0.2	291	8	1	47	3	5	11	0	0	0	stim006_stimuli_original_animals_fish_2.png	R	0	0	0	202.858603174012	203.058602637611
156.981	0.2	292	8	1	47	4	10	3	0	0	0	stim011_stimuli_original_vehicles_boats_3.png	D	0	0	0	203.258609415527	203.459042616974
157.381	0.2	293	8	1	47	5	4	1	0	0	0	stim005_stimuli_original_animals_fish_1.png	B	0	0	0	203.658636380918	203.858627798792
157.781	0.2	294	8	1	47	6	7	8	0	0	0	stim008_stimuli_original_animals_fish_4.png	K	0	0	0	204.058666515833	204.258668905153
158.181	0.2	295	8	1	47	7	8	2	0	0	0	stim009_stimuli_original_vehicles_boats_1.png	C	0	0	0	204.458678852592	204.65868782482
158.581	0.2	296	8	1	47	8	1	13	0	0	0	stim002_stimuli_original_animals_birds_2.png	U	0	0	0	204.858698259864	205.058707475895
158.981	0.2	297	8	1	47	9	11	10	0	0	0	stim012_stimuli_original_vehicles_boats_4.png	Q	0	0	0	205.258707183326	205.458705915487
159.381	0.2	298	8	1	47	10	8	1	1	1	0	stim009_stimuli_original_vehicles_boats_1.png	B	0	0	0	205.658714643883	205.858723372279
159.781	0.2	299	8	1	47	11	13	5	0	0	0	stim014_stimuli_original_vehicles_planes_2.png	F	0	0	0	206.058742584515	206.25873034526
160.181	0.2	300	8	1	47	12	8	1	1	1	1	stim009_stimuli_original_vehicles_boats_1.png	B	0	0	0	206.458717374568	206.658718057239
160.581	0.2	301	8	1	47	13	0	12	0	0	0	stim001_stimuli_original_animals_birds_1.png	T	NaN	207.050493276212	1	206.858725078957	207.058719910186
160.981	0.2	302	8	1	47	14	15	7	0	0	0	stim016_stimuli_original_vehicles_planes_4.png	J	0	0	0	207.258726200496	207.458768087032
161.381	0.2	303	8	1	47	15	3	14	0	0	0	stim004_stimuli_original_animals_birds_4.png	V	0	0	0	207.658779009711	207.858774328575
161.781	0.2	304	8	1	47	16	12	6	0	0	0	stim013_stimuli_original_vehicles_planes_1.png	G	0	0	0	208.058782569336	208.258784227248
162.181	0.2	305	8	1	47	17	2	9	0	0	0	stim003_stimuli_original_animals_birds_3.png	L	0	0	0	208.458794174687	208.658800221165
162.581	0.2	306	8	1	47	18	9	2	0	0	0	stim010_stimuli_original_vehicles_boats_2.png	C	0	0	0	208.858794808591	209.058789883624
162.981	0.2	307	8	1	47	19	6	12	0	0	0	stim007_stimuli_original_animals_fish_3.png	T	0	0	0	209.258816897782	209.458798563253
163.381	0.2	308	8	1	47	20	14	3	0	0	0	stim015_stimuli_original_vehicles_planes_3.png	D	0	0	0	209.658831185021	209.858836256288
163.781	0.2	309	8	1	47	21	7	15	0	0	0	stim008_stimuli_original_animals_fish_4.png	Y	0	0	0	210.05884083992	210.258843716874
164.181	0.2	310	8	1	47	22	12	0	0	0	0	stim013_stimuli_original_vehicles_planes_1.png	A	0	0	0	210.458831721422	210.65885678507
164.581	0.2	311	8	1	47	23	1	8	1	1	0	stim002_stimuli_original_animals_birds_2.png	K	0	0	0	210.85886210014	211.058849617053
164.981	0.2	312	8	1	47	24	5	13	0	0	0	stim006_stimuli_original_animals_fish_2.png	U	0	0	0	211.258875655971	211.458878532925
165.381	0.2	313	8	1	47	25	1	8	1	1	1	stim002_stimuli_original_animals_birds_2.png	K	0	0	0	211.658887261321	211.858888675401
165.781	0.2	314	8	1	47	26	10	11	0	0	0	stim011_stimuli_original_vehicles_boats_3.png	R	0	0	0	212.058897403796	212.258900524583
166.181	0.2	315	8	1	47	27	13	1	0	0	0	stim014_stimuli_original_vehicles_planes_2.png	B	NaN	212.451561309892	1	212.458907546301	212.658947969991
166.582	0.2	316	8	1	47	28	2	8	0	0	0	stim003_stimuli_original_animals_birds_3.png	K	0	0	0	212.858944020263	213.058901792392
166.982	0.2	317	8	1	47	29	8	7	0	0	0	stim009_stimuli_original_vehicles_boats_1.png	J	0	0	0	213.258914665552	213.458936559677
167.381	0.2	318	8	1	47	30	1	4	0	0	0	stim002_stimuli_original_animals_birds_2.png	E	0	0	0	213.658930903301	213.858947433589
167.782	0.2	319	8	1	47	31	3	10	0	0	0	stim004_stimuli_original_animals_birds_4.png	Q	0	0	0	214.059412086528	214.25896098942
168.182	0.2	320	8	1	47	32	11	5	0	0	0	stim012_stimuli_original_vehicles_boats_4.png	F	0	0	0	214.45895777113	214.658947969991
168.582	0.2	321	8	1	47	33	4	9	0	0	0	stim005_stimuli_original_animals_fish_1.png	L	0	0	0	214.858946702181	215.058977617271
168.982	0.2	322	8	1	47	34	15	6	0	0	0	stim016_stimuli_original_vehicles_planes_4.png	G	0	0	0	215.25898853995	215.458995074063
169.382	0.2	323	8	1	47	35	0	14	0	0	0	stim001_stimuli_original_animals_birds_1.png	V	0	0	0	215.659000632935	215.859002290817
171.798	0.2	324	9	0	25	0	4	3	0	0	0	stim005_stimuli_original_animals_fish_1.png	D	0	0	0	218.075735891442	218.275722920749
172.198	0.2	325	9	0	25	1	0	6	0	0	0	stim001_stimuli_original_animals_birds_1.png	G	0	0	0	218.475729698665	218.675748179463
172.598	0.2	326	9	0	25	2	15	0	0	0	0	stim016_stimuli_original_vehicles_planes_4.png	A	0	0	0	218.875742279255	219.075713460945
172.998	0.2	327	9	0	25	3	6	12	0	0	0	stim007_stimuli_original_animals_fish_3.png	T	0	0	0	219.275755591283	219.475791138771
173.398	0.2	328	9	0	25	4	9	13	0	0	0	stim010_stimuli_original_vehicles_boats_2.png	U	0	0	0	219.675785726198	219.875788115518
173.798	0.2	329	9	0	25	5	12	14	0	0	0	stim013_stimuli_original_vehicles_planes_1.png	V	0	0	0	220.07579172391	220.2757999647
174.198	0.2	330	9	0	25	6	2	4	1	0	0	stim003_stimuli_original_animals_birds_3.png	E	0	0	0	220.475796258776	220.675803280494
174.599	0.2	331	9	0	25	7	1	11	0	0	0	stim002_stimuli_original_animals_birds_2.png	R	0	0	0	220.876269883913	221.075808059162
174.998	0.2	332	9	0	25	8	2	2	1	0	1	stim003_stimuli_original_animals_birds_3.png	C	0	0	0	221.275828490441	221.475814300706
175.398	0.2	333	9	0	25	9	3	10	0	0	0	stim004_stimuli_original_animals_birds_4.png	Q	NaN	221.867608780653	1	221.675840339594	221.875828100339
175.798	0.2	334	9	0	25	10	13	5	0	0	0	stim014_stimuli_original_vehicles_planes_2.png	F	0	0	0	222.075850969733	222.275854821928
176.198	0.2	335	9	0	25	11	8	15	0	0	0	stim009_stimuli_original_vehicles_boats_1.png	Y	0	0	0	222.47586598841	222.675846191036
176.598	0.2	336	9	0	25	12	7	11	0	1	0	stim008_stimuli_original_animals_fish_4.png	R	0	0	0	222.875874424237	223.075875594513
176.998	0.2	337	9	0	25	13	10	7	0	0	0	stim011_stimuli_original_vehicles_boats_3.png	J	0	0	0	223.275886761025	223.475891344628
177.398	0.2	338	9	0	25	14	2	11	0	1	0	stim003_stimuli_original_animals_birds_3.png	R	0	0	0	223.675895684457	223.875878325198
177.798	0.2	339	9	0	25	15	5	8	0	0	0	stim006_stimuli_original_animals_fish_2.png	K	0	0	0	224.075905095524	224.275896269595
178.198	0.2	340	9	0	25	16	14	1	0	0	0	stim015_stimuli_original_vehicles_planes_3.png	B	0	0	0	224.475924015162	224.675924210227
178.598	0.2	341	9	0	25	17	11	9	0	0	0	stim012_stimuli_original_vehicles_boats_4.png	L	0	0	0	224.875929037662	225.075911434571
178.998	0.2	342	9	0	25	18	9	11	0	0	0	stim010_stimuli_original_vehicles_boats_2.png	R	0	0	0	225.27592333249	225.475928403757
179.398	0.2	343	9	0	25	19	1	14	0	0	0	stim002_stimuli_original_animals_birds_2.png	V	0	0	0	225.675938838802	225.875937083387
179.798	0.2	344	9	0	25	20	8	5	0	0	0	stim009_stimuli_original_vehicles_boats_1.png	F	0	0	0	226.075967510871	226.276422899013
180.198	0.2	345	9	0	25	21	11	2	1	0	0	stim012_stimuli_original_vehicles_boats_4.png	C	0	0	0	226.475977165741	226.675955661689
180.598	0.2	346	9	0	25	22	7	10	0	0	0	stim008_stimuli_original_animals_fish_4.png	Q	0	0	0	226.875966096763	227.075993354694
180.999	0.2	347	9	0	25	23	11	7	1	0	1	stim012_stimuli_original_vehicles_boats_4.png	J	0	0	0	227.276000376442	227.476002034353
181.399	0.2	348	9	0	25	24	15	8	0	0	0	stim016_stimuli_original_vehicles_planes_4.png	K	0	0	0	227.676013444638	227.876013152068
181.799	0.2	349	9	0	25	25	5	13	0	0	0	stim006_stimuli_original_animals_fish_2.png	U	0	0	0	228.076020661421	228.276025001222
182.199	0.2	350	9	0	25	26	10	3	0	0	0	stim011_stimuli_original_vehicles_boats_3.png	D	0	0	0	228.476032754377	228.676021977997
182.599	0.2	351	9	0	25	27	2	2	0	1	0	stim003_stimuli_original_animals_birds_3.png	C	0	0	0	228.876025098754	229.076022124267
182.999	0.2	352	9	0	25	28	11	1	0	0	0	stim012_stimuli_original_vehicles_boats_4.png	B	0	0	0	229.276023294573	229.476033485815
183.399	0.2	353	9	0	25	29	4	2	0	1	0	stim005_stimuli_original_animals_fish_1.png	C	0	0	0	229.67606683902	229.876052405481
183.799	0.2	354	9	0	25	30	14	12	0	0	0	stim015_stimuli_original_vehicles_planes_3.png	T	0	0	0	230.076062109089	230.276098144212
184.199	0.2	355	9	0	25	31	13	9	0	0	0	stim014_stimuli_original_vehicles_planes_2.png	L	0	0	0	230.476086880197	230.676085368556
184.599	0.2	356	9	0	25	32	12	6	0	0	0	stim013_stimuli_original_vehicles_planes_1.png	G	0	0	0	230.876096778869	231.076093804382
184.999	0.2	357	9	0	25	33	0	15	0	0	0	stim001_stimuli_original_animals_birds_1.png	Y	NaN	231.277619518049	0	231.276102288975	231.476098095445
185.399	0.2	358	9	0	25	34	6	0	0	0	0	stim007_stimuli_original_animals_fish_3.png	A	0	0	0	231.67612852293	231.876132618927
185.799	0.2	359	9	0	25	35	3	4	0	0	0	stim004_stimuli_original_animals_birds_4.png	E	0	0	0	232.076140859717	232.276123744261
189.349	0.2	360	10	1	14	0	11	12	0	0	0	stim012_stimuli_original_vehicles_boats_4.png	T	0	0	0	235.626212344767	235.826207419799
189.749	0.2	361	10	1	14	1	10	6	0	0	0	stim011_stimuli_original_vehicles_boats_3.png	G	0	0	0	236.026213710109	236.226219512784
190.149	0.2	362	10	1	14	2	9	1	0	0	0	stim010_stimuli_original_vehicles_boats_2.png	B	0	0	0	236.4262633498	236.626257693424
190.549	0.2	363	10	1	14	3	12	3	0	0	0	stim013_stimuli_original_vehicles_planes_1.png	D	0	0	0	236.826248867495	237.026270517817
190.949	0.2	364	10	1	14	4	1	10	0	0	0	stim002_stimuli_original_animals_birds_2.png	Q	0	0	0	237.226258522365	237.426266519324
191.349	0.2	365	10	1	14	5	5	7	0	0	0	stim006_stimuli_original_animals_fish_2.png	J	0	0	0	237.626267689629	237.826267153228
191.749	0.2	366	10	1	14	6	0	0	0	0	0	stim001_stimuli_original_animals_birds_1.png	A	0	0	0	238.026283927349	238.226315330074
192.149	0.2	367	10	1	14	7	7	14	0	0	0	stim008_stimuli_original_animals_fish_4.png	V	0	0	0	238.426315768942	238.626288413448
192.549	0.2	368	10	1	14	8	1	8	1	0	0	stim002_stimuli_original_animals_birds_2.png	K	0	0	0	238.826303480921	239.026326350286
192.949	0.2	369	10	1	14	9	13	15	0	0	0	stim014_stimuli_original_vehicles_planes_2.png	Y	0	0	0	239.226334103441	239.426337468001
193.349	0.2	370	10	1	14	10	1	2	1	0	0	stim002_stimuli_original_animals_birds_2.png	C	0	0	0	239.626333274471	239.826349560986
193.749	0.2	371	10	1	14	11	6	5	0	0	0	stim007_stimuli_original_animals_fish_3.png	F	0	0	0	240.026355851296	240.226361897774
194.149	0.2	372	10	1	14	12	4	6	0	1	0	stim005_stimuli_original_animals_fish_1.png	G	0	0	0	240.426350146125	240.626352047839
194.549	0.2	373	10	1	14	13	15	11	0	0	0	stim016_stimuli_original_vehicles_planes_4.png	R	0	0	0	240.826359069586	241.0263836456
194.949	0.2	374	10	1	14	14	14	6	0	1	1	stim015_stimuli_original_vehicles_planes_3.png	G	0	0	0	241.226390179712	241.426371845213
195.349	0.2	375	10	1	14	15	3	9	0	0	0	stim004_stimuli_original_animals_birds_4.png	L	0	0	0	241.626387644093	241.826407343935
195.749	0.2	376	10	1	14	16	2	4	0	0	0	stim003_stimuli_original_animals_birds_3.png	E	NaN	242.02677959291	1	242.026388034195	242.226430164534
196.149	0.2	377	10	1	14	17	8	13	0	0	0	stim009_stimuli_original_vehicles_boats_1.png	U	0	0	0	242.426396470022	242.626431286073
196.549	0.2	378	10	1	14	18	13	8	0	0	0	stim014_stimuli_original_vehicles_planes_2.png	K	0	0	0	242.826420509664	243.026442403789
196.949	0.2	379	10	1	14	19	4	2	0	0	0	stim005_stimuli_original_animals_fish_1.png	C	0	0	0	243.226419924526	243.426464005344
197.349	0.2	380	10	1	14	20	9	3	0	0	0	stim010_stimuli_original_vehicles_boats_2.png	D	0	0	0	243.626461030886	243.826463907841
197.749	0.2	381	10	1	14	21	6	14	1	0	0	stim007_stimuli_original_animals_fish_3.png	V	0	0	0	244.026474099082	244.226460884587
198.149	0.2	382	10	1	14	22	11	15	0	0	0	stim012_stimuli_original_vehicles_boats_4.png	Y	0	0	0	244.426488873956	244.626486874738
198.549	0.2	383	10	1	14	23	6	4	1	0	0	stim007_stimuli_original_animals_fish_3.png	E	0	0	0	244.826929340954	245.026486289571
198.949	0.2	384	10	1	14	24	5	6	0	0	0	stim006_stimuli_original_animals_fish_2.png	G	0	0	0	245.226480633195	245.426484241587
199.349	0.2	385	10	1	14	25	2	1	0	1	0	stim003_stimuli_original_animals_birds_3.png	B	0	0	0	245.62651540048	245.826523885073
199.749	0.2	386	10	1	14	26	15	13	0	0	0	stim016_stimuli_original_vehicles_planes_4.png	U	0	0	0	246.02651188962	246.226510134205
200.149	0.2	387	10	1	14	27	8	1	0	1	1	stim009_stimuli_original_vehicles_boats_1.png	B	0	0	0	246.426519106404	246.626542463375
200.549	0.2	388	10	1	14	28	14	7	0	0	0	stim015_stimuli_original_vehicles_planes_3.png	J	0	0	0	246.826521934592	247.026532125834
200.949	0.2	389	10	1	14	29	0	0	0	0	0	stim001_stimuli_original_animals_birds_1.png	A	NaN	247.2192107093	1	247.226545730431	247.426554702659
201.349	0.2	390	10	1	14	30	7	5	0	0	0	stim008_stimuli_original_animals_fish_4.png	F	0	0	0	247.62657342726	247.826562650851
201.749	0.2	391	10	1	14	31	10	1	0	0	0	stim011_stimuli_original_vehicles_boats_3.png	B	0	0	0	248.026570891612	248.226574012398
202.149	0.2	392	10	1	14	32	3	12	0	0	0	stim004_stimuli_original_animals_birds_4.png	T	0	0	0	248.42660127033	248.626581716788
202.549	0.2	393	10	1	14	33	1	9	0	0	0	stim002_stimuli_original_animals_birds_2.png	L	0	0	0	248.826580448978	249.026581619255
202.949	0.2	394	10	1	14	34	6	10	0	0	0	stim007_stimuli_original_animals_fish_3.png	Q	0	0	0	249.22658742193	249.426628089423
203.349	0.2	395	10	1	14	35	12	11	0	0	0	stim013_stimuli_original_vehicles_planes_1.png	R	0	0	0	249.626634135901	249.826634574769
207.149	0.2	396	11	0	21	0	5	4	0	0	0	stim006_stimuli_original_animals_fish_2.png	E	0	0	0	253.426748287719	253.626741899905
207.549	0.2	397	11	0	21	1	7	15	0	0	0	stim008_stimuli_original_animals_fish_4.png	Y	0	0	0	253.826751847344	254.026754724298
207.949	0.2	398	11	0	21	2	14	1	0	0	0	stim015_stimuli_original_vehicles_planes_3.png	B	0	0	0	254.226762233651	254.426769499172
208.349	0.2	399	11	0	21	3	8	11	0	0	0	stim009_stimuli_original_vehicles_boats_1.png	R	0	0	0	254.626777496131	254.826759649266
208.749	0.2	400	11	0	21	4	2	2	1	0	0	stim003_stimuli_original_animals_birds_3.png	C	0	0	0	255.02676910907	255.22679149083
209.149	0.2	401	11	0	21	5	9	9	0	1	0	stim010_stimuli_original_vehicles_boats_2.png	L	0	0	0	255.426799243985	255.626809679059
209.549	0.2	402	11	0	21	6	2	6	1	0	1	stim003_stimuli_original_animals_birds_3.png	G	0	0	0	255.826809874095	256.02681470153
209.949	0.2	403	11	0	21	7	0	9	0	1	0	stim001_stimuli_original_animals_birds_1.png	L	0	0	0	256.226822454686	256.426826063078
210.349	0.2	404	11	0	21	8	11	5	0	0	0	stim012_stimuli_original_vehicles_boats_4.png	F	0	0	0	256.626831378118	256.82681694458
210.749	0.2	405	11	0	21	9	3	13	0	0	0	stim004_stimuli_original_animals_birds_4.png	U	NaN	257.218607279763	1	257.026837619662	257.226848542341
211.149	0.2	406	11	0	21	10	13	9	0	0	0	stim014_stimuli_original_vehicles_planes_2.png	L	0	0	0	257.426856051694	257.626860635326
211.549	0.2	407	11	0	21	11	12	10	0	0	0	stim013_stimuli_original_vehicles_planes_1.png	Q	0	0	0	257.826856929401	258.02686029399
211.949	0.2	408	11	0	21	12	6	3	0	0	0	stim007_stimuli_original_animals_fish_3.png	D	0	0	0	258.226880237635	258.42709205969
212.349	0.2	409	11	0	21	13	2	14	0	0	0	stim003_stimuli_original_animals_birds_3.png	V	0	0	0	258.626890136307	258.826876190404
212.749	0.2	410	11	0	21	14	4	8	0	0	0	stim005_stimuli_original_animals_fish_1.png	K	0	0	0	259.026881993079	259.226916565327
213.149	0.2	411	11	0	21	15	10	0	0	0	0	stim011_stimuli_original_vehicles_boats_3.png	A	0	0	0	259.426916272729	259.626922075404
213.549	0.2	412	11	0	21	16	1	7	0	0	0	stim002_stimuli_original_animals_birds_2.png	J	0	0	0	259.826906910428	260.026912956935
213.949	0.2	413	11	0	21	17	15	12	0	0	0	stim016_stimuli_original_vehicles_planes_4.png	T	0	0	0	260.226947529183	260.426951868983
214.349	0.2	414	11	0	21	18	12	15	0	0	0	stim013_stimuli_original_vehicles_planes_1.png	Y	0	0	0	260.626954745938	260.826955672412
214.749	0.2	415	11	0	21	19	7	1	0	0	0	stim008_stimuli_original_animals_fish_4.png	B	0	0	0	261.02696561988	261.226970691117
215.149	0.2	416	11	0	21	20	0	10	0	0	0	stim001_stimuli_original_animals_birds_1.png	Q	0	0	0	261.426973811875	261.626976445026
215.549	0.2	417	11	0	21	21	8	4	0	0	0	stim009_stimuli_original_vehicles_boats_1.png	E	0	0	0	261.826988586748	262.026975372253
215.949	0.2	418	11	0	21	22	14	2	0	0	0	stim015_stimuli_original_vehicles_planes_3.png	C	0	0	0	262.226997266407	262.426984539517
216.349	0.2	419	11	0	21	23	3	6	0	0	0	stim004_stimuli_original_animals_birds_4.png	G	0	0	0	262.627011309844	262.827013942995
216.749	0.2	420	11	0	21	24	10	12	0	0	0	stim011_stimuli_original_vehicles_boats_3.png	T	0	0	0	263.027019501867	263.227026523586
217.149	0.2	421	11	0	21	25	9	13	0	0	0	stim010_stimuli_original_vehicles_boats_2.png	U	0	0	0	263.427034032939	263.627034959412
217.549	0.2	422	11	0	21	26	13	3	0	0	0	stim014_stimuli_original_vehicles_planes_2.png	D	0	0	0	263.82704953925	264.027044614282
217.949	0.2	423	11	0	21	27	5	11	0	0	0	stim006_stimuli_original_animals_fish_2.png	R	0	0	0	264.227056756004	264.427060364396
218.349	0.2	424	11	0	21	28	9	0	1	0	0	stim010_stimuli_original_vehicles_boats_2.png	A	0	0	0	264.627068605187	264.827070750704
218.749	0.2	425	11	0	21	29	6	2	0	1	0	stim007_stimuli_original_animals_fish_3.png	C	NaN	265.218844019197	0	265.027069482894	265.227066020801
219.149	0.2	426	11	0	21	30	9	9	1	0	1	stim010_stimuli_original_vehicles_boats_2.png	L	0	0	0	265.427089621575	265.627094205207
219.549	0.2	427	11	0	21	31	2	2	0	1	0	stim003_stimuli_original_animals_birds_3.png	C	0	0	0	265.827103177406	266.02710044675
219.949	0.2	428	11	0	21	32	11	8	0	0	0	stim012_stimuli_original_vehicles_boats_4.png	K	NaN	266.21975659969	1	266.227130630403	266.427114734019
220.349	0.2	429	11	0	21	33	1	14	0	0	0	stim002_stimuli_original_animals_birds_2.png	V	0	0	0	266.627125412895	266.827127314609
220.749	0.2	430	11	0	21	34	15	7	0	0	0	stim016_stimuli_original_vehicles_planes_4.png	J	0	0	0	267.027130679169	267.227141358046
221.149	0.2	431	11	0	21	35	4	5	0	0	0	stim005_stimuli_original_animals_fish_1.png	F	0	0	0	267.42714521024	267.627171005326
224.833	0.2	432	12	1	21	0	5	4	0	0	0	stim006_stimuli_original_animals_fish_2.png	E	0	0	0	271.11058876192	271.310587737913
225.233	0.2	433	12	1	21	1	7	15	0	0	0	stim008_stimuli_original_animals_fish_4.png	Y	0	0	0	271.510575254855	271.710581301333
225.633	0.2	434	12	1	21	2	14	1	0	0	0	stim015_stimuli_original_vehicles_planes_3.png	B	0	0	0	271.910624894546	272.110612411489
226.033	0.2	435	12	1	21	3	8	11	0	0	0	stim009_stimuli_original_vehicles_boats_1.png	R	0	0	0	272.310620408447	272.510621822526
226.433	0.2	436	12	1	21	4	2	2	1	0	0	stim003_stimuli_original_animals_birds_3.png	C	0	0	0	272.710627625202	272.910634403117
226.833	0.2	437	12	1	21	5	9	9	0	1	0	stim010_stimuli_original_vehicles_boats_2.png	L	0	0	0	273.110646544868	273.310645520862
227.233	0.2	438	12	1	21	6	2	6	1	0	0	stim003_stimuli_original_animals_birds_3.png	G	0	0	0	273.510651323537	273.710638840479
227.633	0.2	439	12	1	21	7	0	9	0	1	1	stim001_stimuli_original_animals_birds_1.png	L	0	0	0	273.910650250764	274.110669706803
228.033	0.2	440	12	1	21	8	11	5	0	0	0	stim012_stimuli_original_vehicles_boats_4.png	F	0	0	0	274.310677459958	274.510663514026
228.433	0.2	441	12	1	21	9	3	13	0	0	0	stim004_stimuli_original_animals_birds_4.png	U	0	0	0	274.710669072898	274.910689260345
228.833	0.2	442	12	1	21	10	13	9	0	0	0	stim014_stimuli_original_vehicles_planes_2.png	L	0	0	0	275.110697988741	275.310688187601
229.233	0.2	443	12	1	21	11	12	10	0	0	0	stim013_stimuli_original_vehicles_planes_1.png	Q	0	0	0	275.510711788404	275.710722954886
229.633	0.2	444	12	1	21	12	6	3	0	0	0	stim007_stimuli_original_animals_fish_3.png	D	0	0	0	275.910727050883	276.110725051665
230.033	0.2	445	12	1	21	13	2	14	0	0	0	stim003_stimuli_original_animals_birds_3.png	V	0	0	0	276.310733536229	276.510734706535
230.433	0.2	446	12	1	21	14	4	8	0	0	0	stim005_stimuli_original_animals_fish_1.png	K	0	0	0	276.710742947296	276.910748506169
230.833	0.2	447	12	1	21	15	10	0	0	0	0	stim011_stimuli_original_vehicles_boats_3.png	A	0	0	0	277.111011040688	277.310757917236
231.233	0.2	448	12	1	21	16	1	7	0	0	0	stim002_stimuli_original_animals_birds_2.png	J	0	0	0	277.510758843709	277.710760501621
231.633	0.2	449	12	1	21	17	15	12	0	0	0	stim016_stimuli_original_vehicles_planes_4.png	T	0	0	0	277.910771180497	278.110774788889
232.033	0.2	450	12	1	21	18	12	15	0	0	0	stim013_stimuli_original_vehicles_planes_1.png	Y	0	0	0	278.310786199174	278.510781761841
232.433	0.2	451	12	1	21	19	7	1	0	0	0	stim008_stimuli_original_animals_fish_4.png	B	0	0	0	278.71079073404	278.910794342431
232.833	0.2	452	12	1	21	20	0	10	0	0	0	stim001_stimuli_original_animals_birds_1.png	Q	0	0	0	279.11080233939	279.310806435387
233.233	0.2	453	12	1	21	21	8	4	0	0	0	stim009_stimuli_original_vehicles_boats_1.png	E	0	0	0	279.510821746662	279.710827305535
233.633	0.2	454	12	1	21	22	14	2	0	0	0	stim015_stimuli_original_vehicles_planes_3.png	C	0	0	0	279.910835790128	280.110836960404
234.033	0.2	455	12	1	21	23	3	6	0	0	0	stim004_stimuli_original_animals_birds_4.png	G	0	0	0	280.310849589761	280.510834180983
234.433	0.2	456	12	1	21	24	10	12	0	0	0	stim011_stimuli_original_vehicles_boats_3.png	T	0	0	0	280.710857537953	280.910861146345
234.833	0.2	457	12	1	21	25	9	13	0	0	0	stim010_stimuli_original_vehicles_boats_2.png	U	0	0	0	281.110874019505	281.310871532653
235.233	0.2	458	12	1	21	26	13	3	0	0	0	stim014_stimuli_original_vehicles_planes_2.png	D	0	0	0	281.510879773414	281.710886795161
235.633	0.2	459	12	1	21	27	5	11	0	0	0	stim006_stimuli_original_animals_fish_2.png	R	0	0	0	281.910896011163	282.110896693834
236.033	0.2	460	12	1	21	28	9	0	1	0	0	stim010_stimuli_original_vehicles_boats_2.png	A	0	0	0	282.310887136467	282.511216231098
236.433	0.2	461	12	1	21	29	6	2	0	1	0	stim007_stimuli_original_animals_fish_3.png	C	0	0	0	282.710899717087	282.910918197857
236.833	0.2	462	12	1	21	30	9	9	1	0	0	stim010_stimuli_original_vehicles_boats_2.png	L	0	0	0	283.110927901493	283.310912248911
237.233	0.2	463	12	1	21	31	2	2	0	1	1	stim003_stimuli_original_animals_birds_3.png	C	0	0	0	283.510936824954	283.710940677149
237.633	0.2	464	12	1	21	32	11	8	0	0	0	stim012_stimuli_original_vehicles_boats_4.png	K	0	0	0	283.910949649347	284.110954476782
238.033	0.2	465	12	1	21	33	1	14	0	0	0	stim002_stimuli_original_animals_birds_2.png	V	NaN	284.303545044851	1	284.310962717544	284.510967057373
238.433	0.2	466	12	1	21	34	15	7	0	0	0	stim016_stimuli_original_vehicles_planes_4.png	J	0	0	0	284.710969690525	284.910979150329
238.833	0.2	467	12	1	21	35	4	5	0	0	0	stim005_stimuli_original_animals_fish_1.png	F	0	0	0	285.110983246355	285.310986854747
243.383	0.2	468	13	0	41	0	0	10	0	0	0	stim001_stimuli_original_animals_birds_1.png	Q	0	0	0	289.661111051508	289.861094423657
243.783	0.2	469	13	0	41	1	4	15	0	0	0	stim005_stimuli_original_animals_fish_1.png	Y	0	0	0	290.0611189997	290.26112821573
244.183	0.2	470	13	0	41	2	14	12	0	0	0	stim015_stimuli_original_vehicles_planes_3.png	T	0	0	0	290.461131092685	290.661134701077
244.583	0.2	471	13	0	41	3	7	13	0	0	0	stim008_stimuli_original_animals_fish_4.png	U	0	0	0	290.861140016117	291.061145574989
244.983	0.2	472	13	0	41	4	3	8	1	0	0	stim004_stimuli_original_animals_birds_4.png	K	0	0	0	291.26114991479	291.461562880024
245.383	0.2	473	13	0	41	5	12	14	0	1	0	stim013_stimuli_original_vehicles_planes_1.png	V	0	0	0	291.661167859216	291.861136115156
245.783	0.2	474	13	0	41	6	3	3	1	0	1	stim004_stimuli_original_animals_birds_4.png	D	0	0	0	292.061145331187	292.261181122478
246.183	0.2	475	13	0	41	7	5	14	0	1	0	stim006_stimuli_original_animals_fish_2.png	V	0	0	0	292.461171077506	292.661193215434
246.583	0.2	476	13	0	41	8	1	5	0	0	0	stim002_stimuli_original_animals_birds_2.png	F	NaN	293.052970628691	1	292.861202675267	293.061188729334
246.983	0.2	477	13	0	41	9	9	1	0	0	0	stim010_stimuli_original_vehicles_boats_2.png	B	0	0	0	293.261210379656	293.461195214681
247.383	0.2	478	13	0	41	10	3	2	0	0	0	stim004_stimuli_original_animals_birds_4.png	C	0	0	0	293.66123368789	293.861231932446
247.783	0.2	479	13	0	41	11	10	11	0	0	0	stim011_stimuli_original_vehicles_boats_3.png	R	0	0	0	294.061229689396	294.2612259835
248.183	0.2	480	13	0	41	12	11	0	0	0	0	stim012_stimuli_original_vehicles_boats_4.png	A	0	0	0	294.461252022389	294.661258556502
248.583	0.2	481	13	0	41	13	6	14	0	0	0	stim007_stimuli_original_animals_fish_3.png	V	0	0	0	294.861269235378	295.061252851359
248.983	0.2	482	13	0	41	14	8	6	0	0	0	stim009_stimuli_original_vehicles_boats_1.png	G	0	0	0	295.261289617891	295.461272258603
249.383	0.2	483	13	0	41	15	13	9	0	0	0	stim014_stimuli_original_vehicles_planes_2.png	L	0	0	0	295.661259287939	295.861258263933
249.783	0.2	484	13	0	41	16	15	4	0	0	0	stim016_stimuli_original_vehicles_planes_4.png	E	0	0	0	296.061267723766	296.261293518852
250.183	0.2	485	13	0	41	17	2	7	0	0	0	stim003_stimuli_original_animals_birds_3.png	J	0	0	0	296.461286887206	296.661525284551
250.583	0.2	486	13	0	41	18	7	2	0	0	0	stim008_stimuli_original_animals_fish_4.png	C	0	0	0	296.861343353579	297.061300638103
250.983	0.2	487	13	0	41	19	4	15	0	0	0	stim005_stimuli_original_animals_fish_1.png	Y	0	0	0	297.261302539817	297.461303466291
251.383	0.2	488	13	0	41	20	9	13	0	0	0	stim010_stimuli_original_vehicles_boats_2.png	U	0	0	0	297.661344377586	297.861342622142
251.783	0.2	489	13	0	41	21	6	8	0	0	0	stim007_stimuli_original_animals_fish_3.png	K	0	0	0	298.061333064805	298.261352520844
252.183	0.2	490	13	0	41	22	14	6	0	0	0	stim015_stimuli_original_vehicles_planes_3.png	G	0	0	0	298.461359054956	298.661364126194
252.584	0.2	491	13	0	41	23	0	11	0	0	0	stim001_stimuli_original_animals_birds_1.png	R	0	0	0	298.861378218397	299.061376706784
252.984	0.2	492	13	0	41	24	11	10	0	0	0	stim012_stimuli_original_vehicles_boats_4.png	Q	0	0	0	299.261369099899	299.461387093092
253.384	0.2	493	13	0	41	25	2	3	0	0	0	stim003_stimuli_original_animals_birds_3.png	D	0	0	0	299.661374610005	299.86137480507
253.784	0.2	494	13	0	41	26	1	9	0	0	0	stim002_stimuli_original_animals_birds_2.png	L	0	0	0	300.061383533466	300.261378364696
254.184	0.2	495	13	0	41	27	5	1	0	0	0	stim006_stimuli_original_animals_fish_2.png	B	0	0	0	300.461418544553	300.66141410722
254.584	0.2	496	13	0	41	28	14	5	1	0	0	stim015_stimuli_original_vehicles_planes_3.png	F	0	0	0	300.861416008935	301.061438146891
254.984	0.2	497	13	0	41	29	3	3	0	1	0	stim004_stimuli_original_animals_birds_4.png	D	0	0	0	301.261423957156	301.46144195032
255.384	0.2	498	13	0	41	30	14	12	1	0	1	stim015_stimuli_original_vehicles_planes_3.png	T	0	0	0	301.661450191081	301.861455262348
255.784	0.2	499	13	0	41	31	8	3	0	1	0	stim009_stimuli_original_vehicles_boats_1.png	D	0	0	0	302.06145033738	302.261441023846
256.184	0.2	500	13	0	41	32	13	7	0	0	0	stim014_stimuli_original_vehicles_planes_2.png	J	NaN	302.454006235668	1	302.461434148398	302.661476522568
256.584	0.2	501	13	0	41	33	12	14	0	0	0	stim013_stimuli_original_vehicles_planes_1.png	V	0	0	0	302.861486713809	303.061490809807
256.984	0.2	502	13	0	41	34	15	4	0	0	0	stim016_stimuli_original_vehicles_planes_4.png	E	0	0	0	303.261494662031	303.461501196114
257.384	0.2	503	13	0	41	35	10	0	0	0	0	stim011_stimuli_original_vehicles_boats_3.png	A	0	0	0	303.661509193073	303.861513289099
260.384	0.2	504	14	1	4	0	1	4	0	0	0	stim002_stimuli_original_animals_birds_2.png	E	0	0	0	306.661572827463	306.861573022528
260.784	0.2	505	14	1	4	1	8	15	0	0	0	stim009_stimuli_original_vehicles_boats_1.png	Y	0	0	0	307.06157468044	307.261608765053
261.184	0.2	506	14	1	4	2	15	11	0	0	0	stim016_stimuli_original_vehicles_planes_4.png	R	0	0	0	307.461616518209	307.661625490407
261.584	0.2	507	14	1	4	3	12	12	0	0	0	stim013_stimuli_original_vehicles_planes_1.png	T	0	0	0	307.86163299976	308.061643678637
261.984	0.2	508	14	1	4	4	4	1	0	0	0	stim005_stimuli_original_animals_fish_1.png	B	0	0	0	308.261638753669	308.461645531585
262.384	0.2	509	14	1	4	5	14	2	1	0	0	stim015_stimuli_original_vehicles_planes_3.png	C	0	0	0	308.661650602822	308.861658843613
262.784	0.2	510	14	1	4	6	10	8	0	0	0	stim011_stimuli_original_vehicles_boats_3.png	K	0	0	0	309.061661720567	309.261803812988
263.184	0.2	511	14	1	4	7	14	3	1	0	0	stim015_stimuli_original_vehicles_planes_3.png	D	0	0	0	309.461679177359	309.661685467639
263.584	0.2	512	14	1	4	8	13	4	0	1	0	stim014_stimuli_original_vehicles_planes_2.png	E	0	0	0	309.861659331218	310.061691709183
263.984	0.2	513	14	1	4	9	11	14	0	0	0	stim012_stimuli_original_vehicles_boats_4.png	V	0	0	0	310.261698974733	310.461704045971
264.384	0.2	514	14	1	4	10	9	4	0	1	1	stim010_stimuli_original_vehicles_boats_2.png	E	0	0	0	310.6616893686	310.861685906508
264.784	0.2	515	14	1	4	11	7	5	0	0	0	stim008_stimuli_original_animals_fish_4.png	F	0	0	0	311.061695122538	311.261698730901
265.184	0.2	516	14	1	4	12	14	6	0	0	0	stim015_stimuli_original_vehicles_planes_3.png	G	NaN	311.454374144814	1	311.461730865063	311.661736180104
265.584	0.2	517	14	1	4	13	0	9	0	0	0	stim001_stimuli_original_animals_birds_1.png	L	0	0	0	311.861743201851	312.061745347368
265.984	0.2	518	14	1	4	14	3	0	0	0	0	stim004_stimuli_original_animals_birds_4.png	A	0	0	0	312.261735790031	312.461731108866
266.384	0.2	519	14	1	4	15	5	10	0	0	0	stim006_stimuli_original_animals_fish_2.png	Q	0	0	0	312.66176714396	312.861770264746
266.784	0.2	520	14	1	4	16	6	13	0	0	0	stim007_stimuli_original_animals_fish_3.png	U	0	0	0	313.061748273089	313.261792841542
267.184	0.2	521	14	1	4	17	2	7	0	0	0	stim003_stimuli_original_animals_birds_3.png	J	0	0	0	313.461790110858	313.661792012572
267.584	0.2	522	14	1	4	18	7	2	0	0	0	stim008_stimuli_original_animals_fish_4.png	C	0	0	0	313.861772702832	314.061788745516
267.984	0.2	523	14	1	4	19	13	6	0	0	0	stim014_stimuli_original_vehicles_planes_2.png	G	0	0	0	314.261808445357	314.46179888802
268.384	0.2	524	14	1	4	20	10	5	0	0	0	stim011_stimuli_original_vehicles_boats_3.png	F	0	0	0	314.661826633586	314.861808299087
268.784	0.2	525	14	1	4	21	0	3	0	0	0	stim001_stimuli_original_animals_birds_1.png	D	0	0	0	315.061808494123	315.26181356539
269.184	0.2	526	14	1	4	22	9	0	0	0	0	stim010_stimuli_original_vehicles_boats_2.png	A	0	0	0	315.461821562349	315.661830046942
269.584	0.2	527	14	1	4	23	6	14	0	0	0	stim007_stimuli_original_animals_fish_3.png	V	0	0	0	315.861837312463	316.061836776091
269.984	0.2	528	14	1	4	24	5	7	0	0	0	stim006_stimuli_original_animals_fish_2.png	J	0	0	0	316.261867447378	316.46185106333
270.384	0.2	529	14	1	4	25	4	9	1	0	0	stim005_stimuli_original_animals_fish_1.png	L	0	0	0	316.661862717447	316.861887049687
270.784	0.2	530	14	1	4	26	14	11	0	0	0	stim015_stimuli_original_vehicles_planes_3.png	R	0	0	0	317.061898216169	317.261877687386
271.184	0.2	531	14	1	4	27	4	13	1	0	0	stim005_stimuli_original_animals_fish_1.png	U	0	0	0	317.461884952907	317.661906847061
271.584	0.2	532	14	1	4	28	3	14	0	1	0	stim004_stimuli_original_animals_birds_4.png	V	0	0	0	317.861918501178	318.061900654284
271.984	0.2	533	14	1	4	29	8	10	0	0	0	stim009_stimuli_original_vehicles_boats_1.png	Q	0	0	0	318.261923767452	318.461919573921
272.384	0.2	534	14	1	4	30	2	14	0	1	1	stim003_stimuli_original_animals_birds_3.png	V	0	0	0	318.661907090864	318.861942394549
272.784	0.2	535	14	1	4	31	1	4	0	0	0	stim002_stimuli_original_animals_birds_2.png	E	0	0	0	319.061927717179	319.261924255086
273.184	0.2	536	14	1	4	32	12	12	0	0	0	stim013_stimuli_original_vehicles_planes_1.png	T	NaN	319.454538716527	1	319.461941029207	319.661944881402
273.584	0.2	537	14	1	4	33	11	15	0	0	0	stim012_stimuli_original_vehicles_boats_4.png	Y	0	0	0	319.862178402516	320.061964288674
273.984	0.2	538	14	1	4	34	15	8	0	0	0	stim016_stimuli_original_vehicles_planes_4.png	K	0	0	0	320.261955462745	320.461988084513
274.384	0.2	539	14	1	4	35	4	1	0	0	0	stim005_stimuli_original_animals_fish_1.png	B	0	0	0	320.661994374794	320.861999689863
277.351	0.2	540	15	0	16	0	12	14	0	0	0	stim013_stimuli_original_vehicles_planes_1.png	V	0	0	0	323.628747480223	323.828719149489
277.751	0.2	541	15	0	16	1	6	2	0	0	0	stim007_stimuli_original_animals_fish_3.png	C	0	0	0	324.028745919844	324.228745139641
278.151	0.2	542	15	0	16	2	8	0	0	0	0	stim009_stimuli_original_vehicles_boats_1.png	A	0	0	0	324.428755818517	324.62875381927
278.551	0.2	543	15	0	16	3	7	13	0	0	0	stim008_stimuli_original_animals_fish_4.png	U	0	0	0	324.828778639116	325.02879199991
278.951	0.2	544	15	0	16	4	5	5	1	0	0	stim006_stimuli_original_animals_fish_2.png	F	0	0	0	325.228776591131	325.428781174734
279.351	0.2	545	15	0	16	5	1	15	0	0	0	stim002_stimuli_original_animals_birds_2.png	Y	0	0	0	325.628803556494	325.828806189646
279.751	0.2	546	15	0	16	6	5	1	1	0	1	stim006_stimuli_original_animals_fish_2.png	B	0	0	0	326.028812479926	326.228821695957
280.151	0.2	547	15	0	16	7	3	11	0	0	0	stim004_stimuli_original_animals_birds_4.png	R	NaN	326.620597402536	1	326.428829692915	326.628883526137
280.551	0.2	548	15	0	16	8	14	10	0	0	0	stim015_stimuli_original_vehicles_planes_3.png	Q	0	0	0	326.828838616348	327.02883759237
280.951	0.2	549	15	0	16	9	10	8	0	0	0	stim011_stimuli_original_vehicles_boats_3.png	K	0	0	0	327.229265673785	327.428856512008
281.351	0.2	550	15	0	16	10	0	9	0	0	0	stim001_stimuli_original_animals_birds_1.png	L	0	0	0	327.62886207088	327.828868848796
281.751	0.2	551	15	0	16	11	4	11	0	1	0	stim005_stimuli_original_animals_fish_1.png	R	0	0	0	328.02885368382	328.228877772228
282.151	0.2	552	15	0	16	12	11	12	0	0	0	stim012_stimuli_original_vehicles_boats_4.png	T	0	0	0	328.42886528917	328.628888646141
282.551	0.2	553	15	0	16	13	5	11	0	1	0	stim006_stimuli_original_animals_fish_2.png	R	0	0	0	328.828894692648	329.028881478152
282.951	0.2	554	15	0	16	14	9	4	0	0	0	stim010_stimuli_original_vehicles_boats_2.png	E	0	0	0	329.228904103715	329.428911125433
283.351	0.2	555	15	0	16	15	2	3	0	0	0	stim003_stimuli_original_animals_birds_3.png	D	0	0	0	329.628899617586	329.828936871752
283.751	0.2	556	15	0	16	16	13	7	0	0	0	stim014_stimuli_original_vehicles_planes_2.png	J	0	0	0	330.028918049618	330.22891312468
284.151	0.2	557	15	0	16	17	15	6	0	0	0	stim016_stimuli_original_vehicles_planes_4.png	G	0	0	0	330.428927216883	330.62892375479
284.551	0.2	558	15	0	16	18	6	15	0	0	0	stim007_stimuli_original_animals_fish_3.png	Y	0	0	0	330.828935652709	331.028955840156
284.951	0.2	559	15	0	16	19	7	13	0	0	0	stim008_stimuli_original_animals_fish_4.png	U	0	0	0	331.228948477103	331.428964763618
285.351	0.2	560	15	0	16	20	3	2	0	0	0	stim004_stimuli_original_animals_birds_4.png	C	0	0	0	331.628978124383	331.828952963202
285.751	0.2	561	15	0	16	21	4	9	0	0	0	stim005_stimuli_original_animals_fish_1.png	L	0	0	0	332.028956083988	332.228962130466
286.151	0.2	562	15	0	16	22	11	5	1	0	0	stim012_stimuli_original_vehicles_boats_4.png	F	0	0	0	332.429185411573	332.629012257763
286.551	0.2	563	15	0	16	23	12	11	0	0	0	stim013_stimuli_original_vehicles_planes_1.png	R	0	0	0	332.829016353789	333.029006308818
286.951	0.2	564	15	0	16	24	11	4	1	0	1	stim012_stimuli_original_vehicles_boats_4.png	E	0	0	0	333.229018938175	333.429017182731
287.351	0.2	565	15	0	16	25	9	0	0	0	0	stim010_stimuli_original_vehicles_boats_2.png	A	0	0	0	333.629031762568	333.829033420479
287.751	0.2	566	15	0	16	26	8	10	0	0	0	stim009_stimuli_original_vehicles_boats_1.png	Q	0	0	0	334.029050438403	334.22901186769
288.151	0.2	567	15	0	16	27	10	14	0	0	0	stim011_stimuli_original_vehicles_boats_3.png	V	0	0	0	334.429061556148	334.629063945467
288.551	0.2	568	15	0	16	28	11	3	0	0	0	stim012_stimuli_original_vehicles_boats_4.png	D	0	0	0	334.829045367165	335.029056533647
288.951	0.2	569	15	0	16	29	1	5	0	1	0	stim002_stimuli_original_animals_birds_2.png	F	0	0	0	335.229078671604	335.429068138998
289.351	0.2	570	15	0	16	30	15	1	0	0	0	stim016_stimuli_original_vehicles_planes_4.png	B	0	0	0	335.629082718835	335.829098517715
289.751	0.2	571	15	0	16	31	5	5	0	1	0	stim006_stimuli_original_animals_fish_2.png	F	0	0	0	336.029101882305	336.229105734499
290.151	0.2	572	15	0	16	32	13	7	0	0	0	stim014_stimuli_original_vehicles_planes_2.png	J	0	0	0	336.429132261022	336.629122216051
290.551	0.2	573	15	0	16	33	0	8	0	0	0	stim001_stimuli_original_animals_birds_1.png	K	0	0	0	336.829128506331	337.029129676637
290.951	0.2	574	15	0	16	34	2	6	0	0	0	stim003_stimuli_original_animals_birds_3.png	G	0	0	0	337.229137185961	337.429137381027
291.351	0.2	575	15	0	16	35	14	12	0	0	0	stim015_stimuli_original_vehicles_planes_3.png	T	0	0	0	337.629140745586	337.829669520521
295.118	0.2	576	16	1	35	0	1	8	0	0	0	stim002_stimuli_original_animals_birds_2.png	K	0	0	0	341.39592120648	341.595921645348
295.518	0.2	577	16	1	35	1	6	3	0	0	0	stim007_stimuli_original_animals_fish_3.png	D	0	0	0	341.795934030873	341.995930324978
295.918	0.2	578	16	1	35	2	9	9	0	0	0	stim010_stimuli_original_vehicles_boats_2.png	L	0	0	0	342.195921255247	342.395931690291
296.318	0.2	579	16	1	35	3	3	11	0	0	0	stim004_stimuli_original_animals_birds_4.png	R	0	0	0	342.595943832042	342.795938663272
296.718	0.2	580	16	1	35	4	15	5	0	0	0	stim016_stimuli_original_vehicles_planes_4.png	F	0	0	0	342.995939589746	343.195948074339
297.118	0.2	581	16	1	35	5	12	1	0	0	0	stim013_stimuli_original_vehicles_planes_1.png	B	0	0	0	343.395974113228	343.595996007352
297.518	0.2	582	16	1	35	6	7	4	0	0	0	stim008_stimuli_original_animals_fish_4.png	E	0	0	0	343.795994008105	343.995991521253
297.918	0.2	583	16	1	35	7	14	0	0	0	0	stim015_stimuli_original_vehicles_planes_3.png	A	0	0	0	344.195998055366	344.39598386563
298.318	0.2	584	16	1	35	8	2	13	0	0	0	stim003_stimuli_original_animals_birds_3.png	U	0	0	0	344.595989180671	344.796001322422
298.718	0.2	585	16	1	35	9	5	2	0	1	0	stim006_stimuli_original_animals_fish_2.png	C	0	0	0	344.996005906054	345.196022680175
299.118	0.2	586	16	1	35	10	14	7	1	0	0	stim015_stimuli_original_vehicles_planes_3.png	J	0	0	0	345.396016292332	345.596034773131
299.518	0.2	587	16	1	35	11	11	2	0	1	1	stim012_stimuli_original_vehicles_boats_4.png	C	0	0	0	345.796019120549	345.996486211574
299.918	0.2	588	16	1	35	12	14	10	1	0	0	stim015_stimuli_original_vehicles_planes_3.png	Q	NaN	346.387832081266	1	346.196061933559	346.396058471466
300.318	0.2	589	16	1	35	13	8	6	0	0	0	stim009_stimuli_original_vehicles_boats_1.png	G	0	0	0	346.596065736987	346.796053985367
300.718	0.2	590	16	1	35	14	0	2	0	0	0	stim001_stimuli_original_animals_birds_1.png	C	0	0	0	346.996080024255	347.196079975489
301.118	0.2	591	16	1	35	15	13	15	0	0	0	stim014_stimuli_original_vehicles_planes_2.png	Y	0	0	0	347.39609211724	347.59609353132
301.518	0.2	592	16	1	35	16	4	12	0	0	0	stim005_stimuli_original_animals_fish_1.png	T	0	0	0	347.79610177211	347.996104892867
301.918	0.2	593	16	1	35	17	10	14	0	0	0	stim011_stimuli_original_vehicles_boats_3.png	V	0	0	0	348.196099480294	348.396100406768
302.318	0.2	594	16	1	35	18	14	10	0	0	0	stim015_stimuli_original_vehicles_planes_3.png	Q	0	0	0	348.596116449451	348.796130785486
302.718	0.2	595	16	1	35	19	12	4	0	0	0	stim013_stimuli_original_vehicles_planes_1.png	E	0	0	0	348.996115864313	349.196121666988
303.118	0.2	596	16	1	35	20	15	13	0	0	0	stim016_stimuli_original_vehicles_planes_4.png	U	0	0	0	349.396145999228	349.596129127574
303.518	0.2	597	16	1	35	21	2	0	0	0	0	stim003_stimuli_original_animals_birds_3.png	A	0	0	0	349.796158823621	349.996180717746
303.918	0.2	598	16	1	35	22	6	8	0	0	0	stim007_stimuli_original_animals_fish_3.png	K	0	0	0	350.196148973686	350.396147949708
304.318	0.2	599	16	1	35	23	10	14	0	1	0	stim011_stimuli_original_vehicles_boats_3.png	V	0	0	0	350.596161798108	350.796162724582
304.718	0.2	600	16	1	35	24	2	11	1	0	0	stim003_stimuli_original_animals_birds_3.png	R	0	0	0	350.996196565393	351.19619115282
305.118	0.2	601	16	1	35	25	7	14	0	1	1	stim008_stimuli_original_animals_fish_4.png	V	0	0	0	351.396212071704	351.5962112915
305.518	0.2	602	16	1	35	26	2	5	1	0	0	stim003_stimuli_original_animals_birds_3.png	F	NaN	351.987983584753	1	351.796215143695	351.996221190202
305.918	0.2	603	16	1	35	27	13	2	0	0	0	stim014_stimuli_original_vehicles_planes_2.png	C	0	0	0	352.196230162401	352.39623255172
306.318	0.2	604	16	1	35	28	0	14	0	0	0	stim001_stimuli_original_animals_birds_1.png	V	0	0	0	352.596237622987	352.796242938028
306.718	0.2	605	16	1	35	29	4	7	0	0	0	stim005_stimuli_original_animals_fish_1.png	J	0	0	0	352.996251910256	353.196252836729
307.118	0.2	606	16	1	35	30	1	12	0	0	0	stim002_stimuli_original_animals_birds_2.png	T	0	0	0	353.396266685129	353.596267611603
307.518	0.2	607	16	1	35	31	5	15	0	0	0	stim006_stimuli_original_animals_fish_2.png	Y	0	0	0	353.796276827605	353.996280679799
307.918	0.2	608	16	1	35	32	11	3	0	0	0	stim012_stimuli_original_vehicles_boats_4.png	D	0	0	0	354.196291358676	354.396293504222
308.318	0.2	609	16	1	35	33	9	9	0	0	0	stim010_stimuli_original_vehicles_boats_2.png	L	0	0	0	354.596302232618	354.796307791461
308.718	0.2	610	16	1	35	34	3	6	0	0	0	stim004_stimuli_original_animals_birds_4.png	G	0	0	0	354.996312862728	355.196334269218
309.118	0.2	611	16	1	35	35	8	1	0	0	0	stim009_stimuli_original_vehicles_boats_1.png	B	0	0	0	355.396323005203	355.596311497386
312.418	0.2	612	17	0	47	0	14	0	0	0	0	stim015_stimuli_original_vehicles_planes_3.png	A	0	0	0	358.696398635046	358.896424917766
312.818	0.2	613	17	0	47	1	6	15	0	0	0	stim007_stimuli_original_animals_fish_3.png	Y	0	0	0	359.096414628963	359.29639605066
313.218	0.2	614	17	0	47	2	9	4	0	0	0	stim010_stimuli_original_vehicles_boats_2.png	E	0	0	0	359.49644208196	359.696432768425
313.618	0.2	615	17	0	47	3	5	11	0	0	0	stim006_stimuli_original_animals_fish_2.png	R	0	0	0	359.896428574895	360.09643242709
314.018	0.2	616	17	0	47	4	10	3	0	0	0	stim011_stimuli_original_vehicles_boats_3.png	D	0	0	0	360.296439448837	360.496469876292
314.418	0.2	617	17	0	47	5	4	1	0	0	0	stim005_stimuli_original_animals_fish_1.png	B	0	0	0	360.696456661797	360.896453931142
314.818	0.2	618	17	0	47	6	7	8	0	0	0	stim008_stimuli_original_animals_fish_4.png	K	0	0	0	361.09646095286	361.296464561252
315.218	0.2	619	17	0	47	7	8	2	0	0	0	stim009_stimuli_original_vehicles_boats_1.png	C	0	0	0	361.4964896249	361.696482018044
315.618	0.2	620	17	0	47	8	1	13	0	0	0	stim002_stimuli_original_animals_birds_2.png	U	0	0	0	361.896484651195	362.096489722433
316.018	0.2	621	17	0	47	9	11	10	0	0	0	stim012_stimuli_original_vehicles_boats_4.png	Q	0	0	0	362.296499426069	362.496497426822
316.418	0.2	622	17	0	47	10	8	1	1	1	0	stim009_stimuli_original_vehicles_boats_1.png	B	0	0	0	362.696533461916	362.896554136998
316.818	0.2	623	17	0	47	11	13	5	0	0	0	stim014_stimuli_original_vehicles_planes_2.png	F	0	0	0	363.0965406787	363.296542580414
317.218	0.2	624	17	0	47	12	8	1	1	1	1	stim009_stimuli_original_vehicles_boats_1.png	B	0	0	0	363.496533998317	363.696554429567
317.618	0.2	625	17	0	47	13	0	12	0	0	0	stim001_stimuli_original_animals_birds_1.png	T	0	0	0	363.896535851265	364.096550431103
318.019	0.2	626	17	0	47	14	15	7	0	0	0	stim016_stimuli_original_vehicles_planes_4.png	J	0	0	0	364.296778832213	364.496588611713
318.418	0.2	627	17	0	47	15	3	14	0	0	0	stim004_stimuli_original_animals_birds_4.png	V	0	0	0	364.696583686775	364.896586807532
318.818	0.2	628	17	0	47	16	12	6	0	0	0	stim013_stimuli_original_vehicles_planes_1.png	G	0	0	0	365.096596754971	365.296568668069
319.218	0.2	629	17	0	47	17	2	9	0	0	0	stim003_stimuli_original_animals_birds_3.png	L	0	0	0	365.496576665028	365.696613919194
319.618	0.2	630	17	0	47	18	9	2	0	0	0	stim010_stimuli_original_vehicles_boats_2.png	C	0	0	0	365.896594121819	366.096590172121
320.018	0.2	631	17	0	47	19	6	12	0	0	0	stim007_stimuli_original_animals_fish_3.png	T	0	0	0	366.296598900517	366.496634204173
320.418	0.2	632	17	0	47	20	14	3	0	0	0	stim015_stimuli_original_vehicles_planes_3.png	D	0	0	0	366.696641957329	366.896646540961
320.818	0.2	633	17	0	47	21	7	15	0	0	0	stim008_stimuli_original_animals_fish_4.png	Y	0	0	0	367.096635520749	367.296638641506
321.218	0.2	634	17	0	47	22	12	0	0	0	0	stim013_stimuli_original_vehicles_planes_1.png	A	0	0	0	367.49665005182	367.696668288816
321.618	0.2	635	17	0	47	23	1	8	1	1	0	stim002_stimuli_original_animals_birds_2.png	K	0	0	0	367.89667579814	368.096665753197
322.018	0.2	636	17	0	47	24	5	13	0	0	0	stim006_stimuli_original_animals_fish_2.png	U	0	0	0	368.296672043478	368.496689061401
322.418	0.2	637	17	0	47	25	1	8	1	1	1	stim002_stimuli_original_animals_birds_2.png	K	0	0	0	368.696698033629	368.896674335294
322.819	0.2	638	17	0	47	26	10	11	0	0	0	stim011_stimuli_original_vehicles_boats_3.png	R	0	0	0	369.096707200864	369.296682283486
323.218	0.2	639	17	0	47	27	13	1	0	0	0	stim014_stimuli_original_vehicles_planes_2.png	B	0	0	0	369.496689792839	369.697151763859
323.619	0.2	640	17	0	47	28	2	8	0	0	0	stim003_stimuli_original_animals_birds_3.png	K	0	0	0	369.896734556329	370.096706469427
324.019	0.2	641	17	0	47	29	8	7	0	0	0	stim009_stimuli_original_vehicles_boats_1.png	J	0	0	0	370.296715441655	370.496715392888
324.419	0.2	642	17	0	47	30	1	4	0	0	0	stim002_stimuli_original_animals_birds_2.png	E	0	0	0	370.696723146044	370.896761619253
324.819	0.2	643	17	0	47	31	3	10	0	0	0	stim004_stimuli_original_animals_birds_4.png	Q	0	0	0	371.096765715251	371.296793460817
325.219	0.2	644	17	0	47	32	11	5	0	0	0	stim012_stimuli_original_vehicles_boats_4.png	F	0	0	0	371.496751720551	371.69675971751
325.619	0.2	645	17	0	47	33	4	9	0	0	0	stim005_stimuli_original_animals_fish_1.png	L	0	0	0	371.896790876432	372.096807650552
326.019	0.2	646	17	0	47	34	15	6	0	0	0	stim016_stimuli_original_vehicles_planes_4.png	G	0	0	0	372.296797849383	372.49680852826
326.419	0.2	647	17	0	47	35	0	14	0	0	0	stim001_stimuli_original_animals_birds_1.png	V	0	0	0	372.696800433769	372.896789901191
330.785	0.2	648	18	1	36	0	7	15	0	0	0	stim008_stimuli_original_animals_fish_4.png	Y	0	0	0	377.063604154129	377.263587038673
331.185	0.2	649	18	1	36	1	14	11	0	0	0	stim015_stimuli_original_vehicles_planes_3.png	R	0	0	0	377.463584795623	377.663591817342
331.585	0.2	650	18	1	36	2	3	13	0	0	0	stim004_stimuli_original_animals_birds_4.png	U	0	0	0	377.86362834007	378.063630973222
331.985	0.2	651	18	1	36	3	9	1	0	0	0	stim010_stimuli_original_vehicles_boats_2.png	B	0	0	0	378.263624829211	378.463923203759
332.385	0.2	652	18	1	36	4	12	5	0	0	0	stim013_stimuli_original_vehicles_planes_1.png	F	0	0	0	378.663633265038	378.863656865811
332.785	0.2	653	18	1	36	5	2	0	0	0	0	stim003_stimuli_original_animals_birds_3.png	A	0	0	0	379.063662668486	379.263662375917
333.185	0.2	654	18	1	36	6	8	8	0	1	0	stim009_stimuli_original_vehicles_boats_1.png	K	0	0	0	379.463655988104	379.663683246064
333.585	0.2	655	18	1	36	7	4	12	0	0	0	stim005_stimuli_original_animals_fish_1.png	T	0	0	0	379.863694168744	380.063673639932
333.985	0.2	656	18	1	36	8	1	8	0	1	1	stim002_stimuli_original_animals_birds_2.png	K	0	0	0	380.263677492156	380.463681588153
334.385	0.2	657	18	1	36	9	2	10	1	0	0	stim003_stimuli_original_animals_birds_3.png	Q	0	0	0	380.663690560352	380.863719037356
334.785	0.2	658	18	1	36	10	6	2	0	0	0	stim007_stimuli_original_animals_fish_3.png	C	NaN	381.056317407347	1	381.063727278117	381.263725766505
335.185	0.2	659	18	1	36	11	2	3	1	0	0	stim003_stimuli_original_animals_birds_3.png	D	0	0	0	381.463721816777	381.663725425169
335.585	0.2	660	18	1	36	12	11	9	0	0	0	stim012_stimuli_original_vehicles_boats_4.png	L	0	0	0	381.863746587856	382.063753365772
335.985	0.2	661	18	1	36	13	10	4	0	0	0	stim011_stimuli_original_vehicles_boats_3.png	E	0	0	0	382.263757705601	382.463782037841
336.385	0.2	662	18	1	36	14	0	14	0	0	0	stim001_stimuli_original_animals_birds_1.png	V	0	0	0	382.663774430956	382.86376024122
336.785	0.2	663	18	1	36	15	15	7	0	0	0	stim016_stimuli_original_vehicles_planes_4.png	J	0	0	0	383.063777746778	383.263765751326
337.186	0.2	664	18	1	36	16	5	8	0	0	0	stim006_stimuli_original_animals_fish_2.png	K	0	0	0	383.463775942597	383.663798324327
337.586	0.2	665	18	1	36	17	13	6	0	0	0	stim014_stimuli_original_vehicles_planes_2.png	G	0	0	0	383.863811197487	384.063807735394
337.986	0.2	666	18	1	36	18	6	13	0	0	0	stim007_stimuli_original_animals_fish_3.png	U	0	0	0	384.26381451331	384.463818853139
338.386	0.2	667	18	1	36	19	8	5	0	0	0	stim009_stimuli_original_vehicles_boats_1.png	F	0	0	0	384.663832701539	384.863830702292
338.786	0.2	668	18	1	36	20	7	15	0	0	0	stim008_stimuli_original_animals_fish_4.png	Y	0	0	0	385.063826996367	385.26382694763
339.186	0.2	669	18	1	36	21	14	0	0	0	0	stim015_stimuli_original_vehicles_planes_3.png	A	0	0	0	385.463850060798	385.663840747264
339.586	0.2	670	18	1	36	22	4	10	0	0	0	stim005_stimuli_original_animals_fish_1.png	Q	0	0	0	385.863861178543	386.063865518343
339.986	0.2	671	18	1	36	23	9	11	0	0	0	stim010_stimuli_original_vehicles_boats_2.png	R	0	0	0	386.263870833413	386.463859325566
340.386	0.2	672	18	1	36	24	3	2	0	1	0	stim004_stimuli_original_animals_birds_4.png	C	0	0	0	386.663861714915	386.863891410962
340.786	0.2	673	18	1	36	25	2	6	0	0	0	stim003_stimuli_original_animals_birds_3.png	G	0	0	0	387.063896726002	387.263880829618
341.186	0.2	674	18	1	36	26	10	2	0	1	1	stim011_stimuli_original_vehicles_boats_3.png	C	0	0	0	387.463884437981	387.663903406414
341.586	0.2	675	18	1	36	27	8	1	1	0	0	stim009_stimuli_original_vehicles_boats_1.png	B	0	0	0	387.863917742419	388.063923545094
341.986	0.2	676	18	1	36	28	12	4	0	0	0	stim013_stimuli_original_vehicles_planes_1.png	E	NaN	388.256560680864	1	388.263932517322	388.463914182794
342.386	0.2	677	18	1	36	29	8	8	1	0	0	stim009_stimuli_original_vehicles_boats_1.png	K	0	0	0	388.663916815945	388.863921399578
342.786	0.2	678	18	1	36	30	0	2	0	0	0	stim001_stimuli_original_animals_birds_1.png	C	0	0	0	389.064278532343	389.263955923059
343.186	0.2	679	18	1	36	31	5	12	0	0	0	stim006_stimuli_original_animals_fish_2.png	T	0	0	0	389.463960994297	389.663963871251
343.586	0.2	680	18	1	36	32	1	9	0	0	0	stim002_stimuli_original_animals_birds_2.png	L	0	0	0	389.863974306325	390.063970844232
343.986	0.2	681	18	1	36	33	13	3	0	0	0	stim014_stimuli_original_vehicles_planes_2.png	D	0	0	0	390.263980060234	390.463987569587
344.386	0.2	682	18	1	36	34	11	14	0	0	0	stim012_stimuli_original_vehicles_boats_4.png	V	0	0	0	390.664003368467	390.864002100658
344.786	0.2	683	18	1	36	35	15	7	0	0	0	stim016_stimuli_original_vehicles_planes_4.png	J	0	0	0	391.064009366179	391.264005172648
350.552	0.2	684	19	0	18	0	4	5	0	0	0	stim005_stimuli_original_animals_fish_1.png	F	0	0	0	396.830805918522	397.030819523119
350.952	0.2	685	19	0	18	1	2	6	0	0	0	stim003_stimuli_original_animals_birds_3.png	G	0	0	0	397.230828739121	397.430836492276
351.352	0.2	686	19	0	18	2	3	8	0	0	0	stim004_stimuli_original_animals_birds_4.png	K	0	0	0	397.630833517818	397.830834688095
351.753	0.2	687	19	0	18	3	1	0	0	0	0	stim002_stimuli_original_animals_birds_2.png	A	0	0	0	398.030872186064	398.230850194406
352.153	0.2	688	19	0	18	4	15	14	0	0	0	stim016_stimuli_original_vehicles_planes_4.png	V	0	0	0	398.430851608515	398.630855216878
352.553	0.2	689	19	0	18	5	9	15	0	0	0	stim010_stimuli_original_vehicles_boats_2.png	Y	0	0	0	398.830863945273	399.030896567041
352.953	0.2	690	19	0	18	6	8	4	0	0	0	stim009_stimuli_original_vehicles_boats_1.png	E	0	0	0	399.231336351368	399.430893299985
353.353	0.2	691	19	0	18	7	10	12	0	0	0	stim011_stimuli_original_vehicles_boats_3.png	T	0	0	0	399.630883498845	399.830923678703
353.753	0.2	692	19	0	18	8	4	7	1	0	0	stim005_stimuli_original_animals_fish_1.png	J	0	0	0	400.030924605177	400.230929676443
354.153	0.2	693	19	0	18	9	6	1	0	0	0	stim007_stimuli_original_animals_fish_3.png	B	0	0	0	400.430907197151	400.630946889403
354.553	0.2	694	19	0	18	10	4	13	1	0	1	stim005_stimuli_original_animals_fish_1.png	U	0	0	0	400.830922947294	401.030926799489
354.953	0.2	695	19	0	18	11	7	11	0	0	0	stim008_stimuli_original_animals_fish_4.png	R	0	0	0	401.230929432611	401.430967418215
355.353	0.2	696	19	0	18	12	13	7	0	1	0	stim014_stimuli_original_vehicles_planes_2.png	J	0	0	0	401.63097322089	401.830984875007
355.753	0.2	697	19	0	18	13	11	10	0	0	0	stim012_stimuli_original_vehicles_boats_4.png	Q	0	0	0	402.030984094803	402.230966247909
356.153	0.2	698	19	0	18	14	5	7	0	1	0	stim006_stimuli_original_animals_fish_2.png	J	0	0	0	402.430997894437	402.631000527588
356.553	0.2	699	19	0	18	15	0	3	0	0	0	stim001_stimuli_original_animals_birds_1.png	D	0	0	0	402.831026810309	403.030979462405
356.953	0.2	700	19	0	18	16	12	9	0	0	0	stim013_stimuli_original_vehicles_planes_1.png	L	0	0	0	403.230995505117	403.431022763049
357.353	0.2	701	19	0	18	17	14	2	0	0	0	stim015_stimuli_original_vehicles_planes_3.png	C	0	0	0	403.631027590483	403.83100413598
357.753	0.2	702	19	0	18	18	2	14	0	0	0	stim003_stimuli_original_animals_birds_3.png	V	0	0	0	404.031013352011	404.231017204205
358.153	0.2	703	19	0	18	19	9	12	0	0	0	stim010_stimuli_original_vehicles_boats_2.png	T	0	0	0	404.43102763925	404.631254821317
358.553	0.2	704	19	0	18	20	3	0	0	0	0	stim004_stimuli_original_animals_birds_4.png	A	0	0	0	404.83103826936	405.031067965407
358.953	0.2	705	19	0	18	21	7	5	1	0	0	stim008_stimuli_original_animals_fish_4.png	F	0	0	0	405.231073768082	405.431050557381
359.353	0.2	706	19	0	18	22	10	11	0	0	0	stim011_stimuli_original_vehicles_boats_3.png	R	0	0	0	405.63106148006	405.831063869409
359.753	0.2	707	19	0	18	23	7	13	1	0	1	stim008_stimuli_original_animals_fish_4.png	U	0	0	0	406.031069915887	406.231073524279
360.153	0.2	708	19	0	18	24	11	7	0	0	0	stim012_stimuli_original_vehicles_boats_4.png	J	0	0	0	406.43108274031	406.631084642024
360.553	0.2	709	19	0	18	25	13	4	0	1	0	stim014_stimuli_original_vehicles_planes_2.png	E	NaN	406.823688375822	1	406.83111897044	407.03112526075
360.953	0.2	710	19	0	18	26	1	6	0	0	0	stim002_stimuli_original_animals_birds_2.png	G	0	0	0	407.231133989146	407.431131989899
361.353	0.2	711	19	0	18	27	7	4	0	1	0	stim008_stimuli_original_animals_fish_4.png	E	0	0	0	407.6311412059	407.831141888571
361.753	0.2	712	19	0	18	28	12	10	0	0	0	stim013_stimuli_original_vehicles_planes_1.png	Q	0	0	0	408.031141596002	408.231164709199
362.153	0.2	713	19	0	18	29	4	8	0	0	0	stim005_stimuli_original_animals_fish_1.png	K	0	0	0	408.431170755677	408.63114876402
362.553	0.2	714	19	0	18	30	15	9	0	0	0	stim016_stimuli_original_vehicles_planes_4.png	L	0	0	0	408.831157980021	409.031161588413
362.953	0.2	715	19	0	18	31	14	15	0	0	0	stim015_stimuli_original_vehicles_planes_3.png	Y	0	0	0	409.231166415848	409.431175388076
363.353	0.2	716	19	0	18	32	0	1	0	0	0	stim001_stimuli_original_animals_birds_1.png	B	0	0	0	409.631178752636	409.831175778148
363.753	0.2	717	19	0	18	33	8	3	0	0	0	stim009_stimuli_original_vehicles_boats_1.png	D	0	0	0	410.031216689473	410.231202012103
364.153	0.2	718	19	0	18	34	6	2	0	0	0	stim007_stimuli_original_animals_fish_3.png	C	0	0	0	410.431249993882	410.631230927975
364.553	0.2	719	19	0	18	35	5	4	0	0	0	stim006_stimuli_original_animals_fish_2.png	E	0	0	0	410.831235023972	411.031221565674
368.22	0.2	720	20	1	37	0	12	6	0	0	0	stim013_stimuli_original_vehicles_planes_1.png	G	0	0	0	414.498011486372	414.698012900451
368.62	0.2	721	20	1	37	1	3	11	0	0	0	stim004_stimuli_original_animals_birds_4.png	R	0	0	0	414.898023335525	415.098024505802
369.02	0.2	722	20	1	37	2	8	14	0	0	0	stim009_stimuli_original_vehicles_boats_1.png	V	0	0	0	415.298002514144	415.498010754935
369.42	0.2	723	20	1	37	3	0	10	0	0	0	stim001_stimuli_original_animals_birds_1.png	Q	0	0	0	415.698023871897	415.898027480289
369.82	0.2	724	20	1	37	4	13	3	0	0	0	stim014_stimuli_original_vehicles_planes_2.png	D	0	0	0	416.098055957293	416.298039573274
370.22	0.2	725	20	1	37	5	10	13	0	0	0	stim011_stimuli_original_vehicles_boats_3.png	U	0	0	0	416.498067075008	416.69808775009
370.62	0.2	726	20	1	37	6	15	4	0	0	0	stim016_stimuli_original_vehicles_planes_4.png	E	0	0	0	416.898061369866	417.09806327158
371.02	0.2	727	20	1	37	7	14	7	0	0	0	stim015_stimuli_original_vehicles_planes_3.png	J	0	0	0	417.29807053713	417.498093650298
371.42	0.2	728	20	1	37	8	5	2	0	0	0	stim006_stimuli_original_animals_fish_2.png	C	0	0	0	417.698103110131	417.898112569965
371.82	0.2	729	20	1	37	9	13	13	1	1	0	stim014_stimuli_original_vehicles_planes_2.png	U	0	0	0	418.098103500233	418.298118567676
372.22	0.2	730	20	1	37	10	9	8	0	0	0	stim010_stimuli_original_vehicles_boats_2.png	K	0	0	0	418.498124614154	418.698129441589
372.62	0.2	731	20	1	37	11	13	13	1	1	1	stim014_stimuli_original_vehicles_planes_2.png	U	0	0	0	418.898135000461	419.098139584094
373.02	0.2	732	20	1	37	12	1	1	0	0	0	stim002_stimuli_original_animals_birds_2.png	B	NaN	419.498315761128	1	419.298151725816	419.498139730364
373.42	0.2	733	20	1	37	13	11	5	0	0	0	stim012_stimuli_original_vehicles_boats_4.png	F	0	0	0	419.698163331166	419.898162063357
373.82	0.2	734	20	1	37	14	7	9	0	0	0	stim008_stimuli_original_animals_fish_4.png	L	0	0	0	420.098174448911	420.298179763951
374.22	0.2	735	20	1	37	15	4	15	0	0	0	stim005_stimuli_original_animals_fish_1.png	Y	0	0	0	420.49819263714	420.698186736932
374.62	0.2	736	20	1	37	16	6	12	0	0	0	stim007_stimuli_original_animals_fish_3.png	T	0	0	0	420.898167670995	421.098172254628
375.02	0.2	737	20	1	37	17	2	0	0	0	0	stim003_stimuli_original_animals_birds_3.png	A	0	0	0	421.298180007783	421.49820970383
375.42	0.2	738	20	1	37	18	0	2	0	0	0	stim001_stimuli_original_animals_birds_1.png	C	0	0	0	421.69821306839	421.898213019624
375.82	0.2	739	20	1	37	19	12	6	0	0	0	stim013_stimuli_original_vehicles_planes_1.png	G	0	0	0	422.098227355658	422.298239253578
376.22	0.2	740	20	1	37	20	15	4	0	0	0	stim016_stimuli_original_vehicles_planes_4.png	E	0	0	0	422.498238961009	422.698240862723
376.62	0.2	741	20	1	37	21	9	7	0	0	0	stim010_stimuli_original_vehicles_boats_2.png	J	0	0	0	422.898241545394	423.098228087096
377.02	0.2	742	20	1	37	22	5	11	0	0	0	stim006_stimuli_original_animals_fish_2.png	R	0	0	0	423.298500617791	423.498268949625
377.42	0.2	743	20	1	37	23	1	1	0	0	0	stim002_stimuli_original_animals_birds_2.png	B	0	0	0	423.698278653261	423.898278604494
377.82	0.2	744	20	1	37	24	13	13	1	1	0	stim014_stimuli_original_vehicles_planes_2.png	U	0	0	0	424.098267096677	424.298271680309
378.22	0.2	745	20	1	37	25	8	9	0	0	0	stim009_stimuli_original_vehicles_boats_1.png	L	0	0	0	424.498272606783	424.698264756094
378.62	0.2	746	20	1	37	26	13	13	1	1	1	stim014_stimuli_original_vehicles_planes_2.png	U	0	0	0	424.898275191168	425.098275630007
379.02	0.2	747	20	1	37	27	2	5	0	0	0	stim003_stimuli_original_animals_birds_3.png	F	0	0	0	425.298316785134	425.498318686849
379.42	0.2	748	20	1	37	28	7	14	0	0	0	stim008_stimuli_original_animals_fish_4.png	V	NaN	425.690926321608	1	425.698323514283	425.898330048396
379.82	0.2	749	20	1	37	29	4	15	0	0	0	stim005_stimuli_original_animals_fish_1.png	Y	0	0	0	426.098309519584	426.298339703266
380.22	0.2	750	20	1	37	30	13	10	0	0	0	stim014_stimuli_original_vehicles_planes_2.png	Q	0	0	0	426.498320637329	426.69832034476
380.62	0.2	751	20	1	37	31	3	13	0	0	0	stim004_stimuli_original_animals_birds_4.png	U	0	0	0	426.898342482687	427.098367302533
381.02	0.2	752	20	1	37	32	10	0	0	0	0	stim011_stimuli_original_vehicles_boats_3.png	A	0	0	0	427.298339459463	427.498343311658
381.42	0.2	753	20	1	37	33	14	8	0	0	0	stim015_stimuli_original_vehicles_planes_3.png	K	0	0	0	427.698365693388	427.898385149427
381.82	0.2	754	20	1	37	34	11	3	0	0	0	stim012_stimuli_original_vehicles_boats_4.png	D	0	0	0	428.098361694923	428.298401874781
382.22	0.2	755	20	1	37	35	6	12	0	0	0	stim007_stimuli_original_animals_fish_3.png	T	0	0	0	428.498405483173	428.698806989327
385.203	0.2	756	21	0	2	0	0	3	0	0	0	stim001_stimuli_original_animals_birds_1.png	D	0	0	0	431.481815437844	431.681832455768
385.603	0.2	757	21	0	2	1	12	0	0	0	0	stim013_stimuli_original_vehicles_planes_1.png	A	0	0	0	431.881829237478	432.081843329681
386.003	0.2	758	21	0	2	2	3	15	0	0	0	stim004_stimuli_original_animals_birds_4.png	Y	0	0	0	432.281850595231	432.481857616949
386.403	0.2	759	21	0	2	3	6	7	0	0	0	stim007_stimuli_original_animals_fish_3.png	J	0	0	0	432.681842939608	432.881843134644
386.803	0.2	760	21	0	2	4	1	11	0	0	0	stim002_stimuli_original_animals_birds_2.png	R	0	0	0	433.081878194498	433.281884972414
387.203	0.2	761	21	0	2	5	4	10	0	0	0	stim005_stimuli_original_animals_fish_1.png	Q	0	0	0	433.48188906844	433.681877804425
387.603	0.2	762	21	0	2	6	8	6	0	0	0	stim009_stimuli_original_vehicles_boats_1.png	G	0	0	0	433.881897504267	434.081917935517
388.003	0.2	763	21	0	2	7	11	1	0	1	0	stim012_stimuli_original_vehicles_boats_4.png	B	0	0	0	434.281913010578	434.481894188444
388.403	0.2	764	21	0	2	8	4	9	1	0	0	stim005_stimuli_original_animals_fish_1.png	L	0	0	0	434.681927297817	434.881898235675
388.803	0.2	765	21	0	2	9	9	1	0	1	0	stim010_stimuli_original_vehicles_boats_2.png	B	0	0	0	435.081899893587	435.28193592871
389.203	0.2	766	21	0	2	10	4	2	1	0	1	stim005_stimuli_original_animals_fish_1.png	C	0	0	0	435.481937342789	435.681945583579
389.603	0.2	767	21	0	2	11	15	13	0	0	0	stim016_stimuli_original_vehicles_planes_4.png	U	NaN	436.073691789148	1	435.881924810965	436.082341189525
390.003	0.2	768	21	0	2	12	5	14	0	0	0	stim006_stimuli_original_animals_fish_2.png	V	0	0	0	436.281969818287	436.481965137122
390.403	0.2	769	21	0	2	13	14	5	0	0	0	stim015_stimuli_original_vehicles_planes_3.png	F	0	0	0	436.681973865518	436.881978205347
390.803	0.2	770	21	0	2	14	2	12	0	0	0	stim003_stimuli_original_animals_birds_3.png	T	0	0	0	437.081967428938	437.281991517346
391.203	0.2	771	21	0	2	15	7	8	0	0	0	stim008_stimuli_original_animals_fish_4.png	K	0	0	0	437.482020238152	437.68198264268
391.603	0.2	772	21	0	2	16	13	1	0	0	0	stim014_stimuli_original_vehicles_planes_2.png	B	0	0	0	437.882005512045	438.082017409964
392.003	0.2	773	21	0	2	17	10	4	0	0	0	stim011_stimuli_original_vehicles_boats_3.png	E	0	0	0	438.282002732623	438.482023895311
392.403	0.2	774	21	0	2	18	4	10	0	0	0	stim005_stimuli_original_animals_fish_1.png	Q	0	0	0	438.682037012273	438.882016239688
392.803	0.2	775	21	0	2	19	1	13	0	0	0	stim002_stimuli_original_animals_birds_2.png	U	0	0	0	439.082040815731	439.282045886968
393.203	0.2	776	21	0	2	20	8	7	0	0	0	stim009_stimuli_original_vehicles_boats_1.png	J	0	0	0	439.482036329631	439.682058223756
393.603	0.2	777	21	0	2	21	12	2	0	0	0	stim013_stimuli_original_vehicles_planes_1.png	C	0	0	0	439.882064514037	440.082048861455
394.004	0.2	778	21	0	2	22	5	14	0	0	0	stim006_stimuli_original_animals_fish_2.png	V	0	0	0	440.282061978418	440.482061685849
394.404	0.2	779	21	0	2	23	14	5	0	0	0	stim015_stimuli_original_vehicles_planes_3.png	F	0	0	0	440.682086261892	440.882090114086
394.804	0.2	780	21	0	2	24	13	15	0	0	0	stim014_stimuli_original_vehicles_planes_2.png	Y	0	0	0	441.082099086285	441.282101719436
395.204	0.2	781	21	0	2	25	2	4	0	1	0	stim003_stimuli_original_animals_birds_3.png	E	0	0	0	441.482097525906	441.682118444791
395.604	0.2	782	21	0	2	26	1	9	1	0	0	stim002_stimuli_original_animals_birds_2.png	L	0	0	0	441.882125222706	442.082106400572
396.004	0.2	783	21	0	2	27	9	4	0	1	0	stim010_stimuli_original_vehicles_boats_2.png	E	0	0	0	442.282116104208	442.482137510728
396.404	0.2	784	21	0	2	28	1	11	1	0	1	stim002_stimuli_original_animals_birds_2.png	R	0	0	0	442.682144776278	442.882144727511
396.804	0.2	785	21	0	2	29	6	8	0	0	0	stim007_stimuli_original_animals_fish_3.png	K	0	0	0	443.082140777784	443.282163647149
397.204	0.2	786	21	0	2	30	10	4	0	0	0	stim011_stimuli_original_vehicles_boats_3.png	E	0	0	0	443.482166767906	443.682161599136
397.604	0.2	787	21	0	2	31	11	1	0	0	0	stim012_stimuli_original_vehicles_boats_4.png	B	0	0	0	443.882176910411	444.082190758811
398.004	0.2	788	21	0	2	32	7	6	0	0	0	stim008_stimuli_original_animals_fish_4.png	G	0	0	0	444.282188759564	444.482197244157
398.404	0.2	789	21	0	2	33	15	3	0	0	0	stim016_stimuli_original_vehicles_planes_4.png	D	0	0	0	444.682199145871	444.882250053372
398.804	0.2	790	21	0	2	34	0	12	0	0	0	stim001_stimuli_original_animals_birds_1.png	T	0	0	0	445.082217821706	445.282224112016
399.204	0.2	791	21	0	2	35	3	0	0	0	0	stim004_stimuli_original_animals_birds_4.png	A	0	0	0	445.482207484165	445.68221133636
403.704	0.2	792	22	1	23	0	4	5	0	0	0	stim005_stimuli_original_animals_fish_1.png	F	0	0	0	449.982324025303	450.182340068015
404.104	0.2	793	22	1	23	1	1	1	0	0	0	stim002_stimuli_original_animals_birds_2.png	B	0	0	0	450.38237049547	450.582372641016
404.504	0.2	794	22	1	23	2	8	15	0	0	0	stim009_stimuli_original_vehicles_boats_1.png	Y	0	0	0	450.782338946476	450.982345968194
404.904	0.2	795	22	1	23	3	2	6	0	0	0	stim003_stimuli_original_animals_birds_3.png	G	0	0	0	451.182383953797	451.382390244078
405.304	0.2	796	22	1	23	4	7	13	0	0	0	stim008_stimuli_original_animals_fish_4.png	U	0	0	0	451.582370202901	451.782371860812
405.704	0.2	797	22	1	23	5	0	3	0	0	0	stim001_stimuli_original_animals_birds_1.png	D	0	0	0	451.982381320646	452.18238224712
406.104	0.2	798	22	1	23	6	11	9	0	0	0	stim012_stimuli_original_vehicles_boats_4.png	L	0	0	0	452.382425108895	452.582398241037
406.504	0.2	799	22	1	23	7	9	10	0	1	0	stim010_stimuli_original_vehicles_boats_2.png	Q	0	0	0	452.782432569482	452.982444955036
406.904	0.2	800	22	1	23	8	5	11	0	0	0	stim006_stimuli_original_animals_fish_2.png	R	0	0	0	453.182417599543	453.382453147031
407.304	0.2	801	22	1	23	9	15	10	0	1	1	stim016_stimuli_original_vehicles_planes_4.png	Q	0	0	0	453.582458218298	453.782424036122
