onset	duration	eventnumber	sequencenumber	condition	streamnumber	stimnumber	objectstimnumber	letterstimnumber	objecttarget	lettertarget	is2back	objectstim	letterstim	response	rt	correct	time_stimon	time_stimoff
67.383	0.2	0	0	0	25	0	14	6	0	0	0	stim015_stimuli_original_vehicles_planes_3.png	G	0	0	0	85.5632790321251	85.7632844446925
67.784	0.2	1	0	0	25	1	1	4	0	0	0	stim002_stimuli_original_animals_birds_2.png	E	0	0	0	85.9642360816943	86.1632869802415
68.183	0.2	2	0	0	25	2	5	15	0	0	0	stim006_stimuli_original_animals_fish_2.png	Y	0	0	0	86.3632870290894	86.5633070701733
68.583	0.2	3	0	0	25	3	15	0	0	0	0	stim016_stimuli_original_vehicles_planes_4.png	A	0	0	0	86.7633117513033	86.9633005848154
68.983	0.2	4	0	0	25	4	11	1	0	0	0	stim012_stimuli_original_vehicles_boats_4.png	B	0	0	0	87.163339399267	87.3633279890055
69.383	0.2	5	0	0	25	5	2	11	0	0	0	stim003_stimuli_original_animals_birds_3.png	R	0	0	0	87.5633056072984	87.7633151646005
69.783	0.2	6	0	0	25	6	0	5	0	0	0	stim001_stimuli_original_animals_birds_1.png	F	0	0	0	87.9633196019568	88.1633420812432
70.183	0.2	7	0	0	25	7	4	7	0	0	0	stim005_stimuli_original_animals_fish_1.png	J	0	0	0	88.3633545642952	88.5633575387765
70.583	0.2	8	0	0	25	8	10	13	1	0	0	stim011_stimuli_original_vehicles_boats_3.png	U	0	0	0	88.7633673398523	88.9633522724034
70.983	0.2	9	0	0	25	9	12	10	0	0	0	stim013_stimuli_original_vehicles_planes_1.png	Q	0	0	0	89.1633825536119	89.3633813832421
71.383	0.2	10	0	0	25	10	10	3	1	0	1	stim011_stimuli_original_vehicles_boats_3.png	D	0	0	0	89.5633687539957	89.7633934274781
71.783	0.2	11	0	0	25	11	3	9	0	0	0	stim004_stimuli_original_animals_birds_4.png	L	NaN	90.1551756841363	1	89.9634007904679	90.1634071783628
72.183	0.2	12	0	0	25	12	6	15	0	1	0	stim007_stimuli_original_animals_fish_3.png	Y	0	0	0	90.3634096651804	90.5634121519979
72.583	0.2	13	0	0	25	13	8	8	0	0	0	stim009_stimuli_original_vehicles_boats_1.png	K	0	0	0	90.7634236598387	90.9634217581479
72.983	0.2	14	0	0	25	14	10	15	0	1	0	stim011_stimuli_original_vehicles_boats_3.png	Y	0	0	0	91.1634115668712	91.3634325832827
73.383	0.2	15	0	0	25	15	9	2	0	0	0	stim010_stimuli_original_vehicles_boats_2.png	C	0	0	0	91.5634409216	91.7634268293623
73.783	0.2	16	0	0	25	16	13	14	0	0	0	stim014_stimuli_original_vehicles_planes_2.png	V	0	0	0	91.9634539409308	92.1634498449275
74.183	0.2	17	0	0	25	17	7	12	0	0	0	stim008_stimuli_original_animals_fish_4.png	T	0	0	0	92.3634440422757	92.563450917718
74.583	0.2	18	0	0	25	18	12	7	0	0	0	stim013_stimuli_original_vehicles_planes_1.png	J	0	0	0	92.7634509664495	92.9634780781344
74.983	0.2	19	0	0	25	19	14	13	0	0	0	stim015_stimuli_original_vehicles_planes_3.png	U	0	0	0	93.1634881231003	93.3634886593791
75.383	0.2	20	0	0	25	20	2	9	0	0	0	stim003_stimuli_original_animals_birds_3.png	L	0	0	0	93.5634626206011	93.7634631569963
75.783	0.2	21	0	0	25	21	15	10	1	0	0	stim016_stimuli_original_vehicles_planes_4.png	Q	0	0	0	93.963474420947	94.1634747135686
76.183	0.2	22	0	0	25	22	8	8	0	0	0	stim009_stimuli_original_vehicles_boats_1.png	K	0	0	0	94.3634854898555	94.5634840758285
76.583	0.2	23	0	0	25	23	15	6	1	0	1	stim016_stimuli_original_vehicles_planes_4.png	G	0	0	0	94.7634921702556	94.9635046533076
76.983	0.2	24	0	0	25	24	9	3	0	0	0	stim010_stimuli_original_vehicles_boats_2.png	D	0	0	0	95.1635078715626	95.363507188973
77.383	0.2	25	0	0	25	25	3	10	0	1	0	stim004_stimuli_original_animals_birds_4.png	Q	0	0	0	95.5635211348999	95.7635160635691
77.783	0.2	26	0	0	25	26	10	12	0	0	0	stim011_stimuli_original_vehicles_boats_3.png	T	0	0	0	95.9635248895502	96.1635256697191
78.184	0.2	27	0	0	25	27	13	10	0	1	0	stim014_stimuli_original_vehicles_planes_2.png	Q	0	0	0	96.3635466861306	96.5635438091122
78.584	0.2	28	0	0	25	28	7	4	0	0	0	stim008_stimuli_original_animals_fish_4.png	E	0	0	0	96.7635526349768	96.9635556094581
78.984	0.2	29	0	0	25	29	5	0	0	0	0	stim006_stimuli_original_animals_fish_2.png	A	0	0	0	97.1635932049248	97.3635925222188
79.384	0.2	30	0	0	25	30	11	2	0	0	0	stim012_stimuli_original_vehicles_boats_4.png	C	0	0	0	97.5635837939335	97.7635855493136
79.784	0.2	31	0	0	25	31	1	11	0	0	0	stim002_stimuli_original_animals_birds_2.png	R	0	0	0	97.9636082723737	98.1635858906666
80.184	0.2	32	0	0	25	32	0	15	0	0	0	stim001_stimuli_original_animals_birds_1.png	Y	0	0	0	98.3636042251019	98.5636235348647
80.584	0.2	33	0	0	25	33	15	5	0	0	0	stim016_stimuli_original_vehicles_planes_4.png	F	0	0	0	98.7636399187613	98.9636214380153
80.984	0.2	34	0	0	25	34	4	1	0	0	0	stim005_stimuli_original_animals_fish_1.png	B	0	0	0	99.163643673528	99.3636476232205
81.384	0.2	35	0	0	25	35	6	14	0	0	0	stim007_stimuli_original_animals_fish_3.png	V	0	0	0	99.5636523043504	99.7636357740266
89.5	0.2	36	1	1	13	0	5	7	0	0	0	stim006_stimuli_original_animals_fish_2.png	J	0	0	0	107.680532352999	107.880535083706
89.9	0.2	37	1	1	13	1	3	6	0	0	0	stim004_stimuli_original_animals_birds_4.png	G	0	0	0	108.08054293436	108.280548590701
90.3	0.2	38	1	1	13	2	1	2	0	0	0	stim002_stimuli_original_animals_birds_2.png	C	0	0	0	108.480555709917	108.680816634791
90.7	0.2	39	1	1	13	3	4	5	0	0	0	stim005_stimuli_original_animals_fish_1.png	F	0	0	0	108.880568485591	109.080568534322
91.1	0.2	40	1	1	13	4	14	8	0	0	0	stim015_stimuli_original_vehicles_planes_3.png	K	0	0	0	109.280557611724	109.480560829979
91.5	0.2	41	1	1	13	5	10	9	0	0	0	stim011_stimuli_original_vehicles_boats_3.png	L	0	0	0	109.680583309149	109.880590672255
91.9	0.2	42	1	1	13	6	11	12	1	0	0	stim012_stimuli_original_vehicles_boats_4.png	T	0	0	0	110.080597060034	110.28058345546
92.301	0.2	43	1	1	13	7	0	4	0	0	0	stim001_stimuli_original_animals_birds_1.png	E	0	0	0	110.48060886038	110.680610371986
92.701	0.2	44	1	1	13	8	11	8	1	1	0	stim012_stimuli_original_vehicles_boats_4.png	K	0	0	0	110.880617978866	111.080627780058
93.101	0.2	45	1	1	13	9	13	11	0	0	0	stim014_stimuli_original_vehicles_planes_2.png	R	0	0	0	111.280607592547	111.48061471188
93.501	0.2	46	1	1	13	10	15	8	0	1	1	stim016_stimuli_original_vehicles_planes_4.png	K	0	0	0	111.680616954924	111.880625537015
93.901	0.2	47	1	1	13	11	7	10	0	0	0	stim008_stimuli_original_animals_fish_4.png	Q	0	0	0	112.080650210497	112.280626122141
94.301	0.2	48	1	1	13	12	6	0	0	0	0	stim007_stimuli_original_animals_fish_3.png	A	0	0	0	112.480637386092	112.680638410151
94.701	0.2	49	1	1	13	13	2	1	0	0	0	stim003_stimuli_original_animals_birds_3.png	B	0	0	0	112.880642359843	113.080679223756
95.101	0.2	50	1	1	13	14	9	13	0	0	0	stim010_stimuli_original_vehicles_boats_2.png	U	0	0	0	113.280664887861	113.480682734633
95.501	0.2	51	1	1	13	15	8	14	0	0	0	stim009_stimuli_original_vehicles_boats_1.png	V	0	0	0	113.680675712996	113.880694047431
95.901	0.2	52	1	1	13	16	12	15	0	0	0	stim013_stimuli_original_vehicles_planes_1.png	Y	0	0	0	114.080681418069	114.280680491589
96.301	0.2	53	1	1	13	17	11	3	0	0	0	stim012_stimuli_original_vehicles_boats_4.png	D	0	0	0	114.480711748009	114.680716429139
96.701	0.2	54	1	1	13	18	3	11	0	0	0	stim004_stimuli_original_animals_birds_4.png	R	0	0	0	114.880721354042	115.080726279062
97.101	0.2	55	1	1	13	19	15	12	0	0	0	stim016_stimuli_original_vehicles_planes_4.png	T	0	0	0	115.280716575449	115.480735885096
97.501	0.2	56	1	1	13	20	14	8	0	0	0	stim015_stimuli_original_vehicles_planes_3.png	K	0	0	0	115.680716916802	115.880728180753
97.901	0.2	57	1	1	13	21	13	9	0	0	0	stim014_stimuli_original_vehicles_planes_2.png	L	0	0	0	116.0807270105	116.280727546895
98.301	0.2	58	1	1	13	22	1	2	0	0	0	stim002_stimuli_original_animals_birds_2.png	C	0	0	0	116.480740761268	116.680739834788
98.701	0.2	59	1	1	13	23	0	6	0	0	0	stim001_stimuli_original_animals_birds_1.png	G	0	0	0	116.880754512153	117.080749197165
99.101	0.2	60	1	1	13	24	10	7	0	0	0	stim011_stimuli_original_vehicles_boats_3.png	J	0	0	0	117.280768750585	117.48076928698
99.501	0.2	61	1	1	13	25	8	15	1	0	0	stim009_stimuli_original_vehicles_boats_1.png	Y	0	0	0	117.680777381524	117.880787670263
99.901	0.2	62	1	1	13	26	11	13	0	0	0	stim012_stimuli_original_vehicles_boats_4.png	U	0	0	0	118.080786743783	118.280777040171
100.301	0.2	63	1	1	13	27	8	11	1	1	0	stim009_stimuli_original_vehicles_boats_1.png	R	0	0	0	118.480787085136	118.680799080525
100.701	0.2	64	1	1	13	28	4	0	0	0	0	stim005_stimuli_original_animals_fish_1.png	A	NaN	118.873374888208	0	118.88081205124	119.08081380662
101.101	0.2	65	1	1	13	29	12	11	0	1	1	stim013_stimuli_original_vehicles_planes_1.png	R	0	0	0	119.281076925807	119.480845355545
101.501	0.2	66	1	1	13	30	9	10	0	0	0	stim010_stimuli_original_vehicles_boats_2.png	Q	0	0	0	119.680844429065	119.880850085523
101.901	0.2	67	1	1	13	31	8	14	0	0	0	stim009_stimuli_original_vehicles_boats_1.png	V	NaN	120.073414190323	1	120.080873052357	120.280860910658
102.301	0.2	68	1	1	13	32	5	4	0	0	0	stim006_stimuli_original_animals_fish_2.png	E	0	0	0	120.480867298436	120.680870029028
102.701	0.2	69	1	1	13	33	2	1	0	0	0	stim003_stimuli_original_animals_birds_3.png	B	0	0	0	120.880875929259	121.080881098052
103.101	0.2	70	1	1	13	34	6	3	0	0	0	stim007_stimuli_original_animals_fish_3.png	D	0	0	0	121.280890167691	121.480883633601
103.501	0.2	71	1	1	13	35	7	5	0	0	0	stim008_stimuli_original_animals_fish_4.png	F	0	0	0	121.680882219574	121.880916157854
108.251	0.2	72	2	0	15	0	14	13	0	0	0	stim015_stimuli_original_vehicles_planes_3.png	U	0	0	0	126.430996078532	126.630998565466
108.651	0.2	73	2	0	15	1	11	15	0	0	0	stim012_stimuli_original_vehicles_boats_4.png	Y	0	0	0	126.831018850324	127.031022312469
109.051	0.2	74	2	0	15	2	12	7	0	0	0	stim013_stimuli_original_vehicles_planes_1.png	J	0	0	0	127.231025530724	127.431031430955
109.451	0.2	75	2	0	15	3	4	0	0	0	0	stim005_stimuli_original_animals_fish_1.png	A	0	0	0	127.631038793945	127.831040549441
109.851	0.2	76	2	0	15	4	9	6	0	0	0	stim010_stimuli_original_vehicles_boats_2.png	G	NaN	128.222812322318	0	128.03104961908	128.231049180264
110.251	0.2	77	2	0	15	5	3	1	0	0	0	stim004_stimuli_original_animals_birds_4.png	B	0	0	0	128.431069221348	128.631092919619
110.651	0.2	78	2	0	15	6	2	10	0	0	0	stim003_stimuli_original_animals_birds_3.png	Q	0	0	0	128.831097356975	129.031099843793
111.051	0.2	79	2	0	15	7	9	14	1	0	0	stim010_stimuli_original_vehicles_boats_2.png	V	0	0	0	129.231116471696	129.431110425154
111.451	0.2	80	2	0	15	8	5	2	0	0	0	stim006_stimuli_original_animals_fish_2.png	C	0	0	0	129.631120713893	129.831123688375
111.851	0.2	81	2	0	15	9	9	12	1	0	1	stim010_stimuli_original_vehicles_boats_2.png	T	0	0	0	130.031129100942	130.231128418352
112.251	0.2	82	2	0	15	10	7	7	0	1	0	stim008_stimuli_original_animals_fish_4.png	J	0	0	0	130.431115301326	130.631114374846
112.651	0.2	83	2	0	15	11	8	8	0	0	0	stim009_stimuli_original_vehicles_boats_1.png	K	0	0	0	130.831128320773	131.031132758129
113.051	0.2	84	2	0	15	12	6	7	0	1	0	stim007_stimuli_original_animals_fish_3.png	J	0	0	0	131.231132319313	131.431162356632
113.451	0.2	85	2	0	15	13	1	9	0	0	0	stim002_stimuli_original_animals_birds_2.png	L	0	0	0	131.63117142627	131.831178057939
113.851	0.2	86	2	0	15	14	13	5	0	0	0	stim014_stimuli_original_vehicles_planes_2.png	F	0	0	0	132.031180300983	132.231205462129
114.251	0.2	87	2	0	15	15	10	11	0	0	0	stim011_stimuli_original_vehicles_boats_3.png	R	0	0	0	132.431177716586	132.631180934841
114.651	0.2	88	2	0	15	16	15	3	0	0	0	stim016_stimuli_original_vehicles_planes_4.png	D	0	0	0	132.831200488377	133.031209314242
115.051	0.2	89	2	0	15	17	0	4	0	0	0	stim001_stimuli_original_animals_birds_1.png	E	0	0	0	133.231215458247	133.431216969853
115.451	0.2	90	2	0	15	18	4	0	0	0	0	stim005_stimuli_original_animals_fish_1.png	A	0	0	0	133.631439616671	133.831209509284
115.851	0.2	91	2	0	15	19	3	15	0	0	0	stim004_stimuli_original_animals_birds_4.png	Y	0	0	0	134.031202243757	134.231240082998
116.251	0.2	92	2	0	15	20	11	10	0	0	0	stim012_stimuli_original_vehicles_boats_4.png	Q	0	0	0	134.4312291604	134.631251395796
116.651	0.2	93	2	0	15	21	5	13	0	0	0	stim006_stimuli_original_animals_fish_2.png	U	0	0	0	134.831228526426	135.031257832306
117.051	0.2	94	2	0	15	22	9	1	0	0	0	stim010_stimuli_original_vehicles_boats_2.png	B	0	0	0	135.231267389725	135.431268413668
117.451	0.2	95	2	0	15	23	7	6	1	0	0	stim008_stimuli_original_animals_fish_4.png	G	0	0	0	135.631276020547	135.831281433115
117.851	0.2	96	2	0	15	24	8	8	0	0	0	stim009_stimuli_original_vehicles_boats_1.png	K	0	0	0	136.031294647604	136.231272509671
118.251	0.2	97	2	0	15	25	7	7	1	0	1	stim008_stimuli_original_animals_fish_4.png	J	0	0	0	136.431295720395	136.631299426197
118.651	0.2	98	2	0	15	26	12	9	0	1	0	stim013_stimuli_original_vehicles_planes_1.png	L	NaN	137.023069248651	1	136.831306789303	137.031316102832
119.051	0.2	99	2	0	15	27	2	5	0	0	0	stim003_stimuli_original_animals_birds_3.png	F	0	0	0	137.231324197259	137.431323027005
119.451	0.2	100	2	0	15	28	14	9	0	1	0	stim015_stimuli_original_vehicles_planes_3.png	L	0	0	0	137.631327464362	137.831318492186
119.851	0.2	101	2	0	15	29	10	2	0	0	0	stim011_stimuli_original_vehicles_boats_3.png	C	0	0	0	138.031343653332	138.231345408713
120.251	0.2	102	2	0	15	30	1	3	0	0	0	stim002_stimuli_original_animals_birds_2.png	D	0	0	0	138.431333754677	138.631354527199
120.651	0.2	103	2	0	15	31	6	9	0	0	0	stim007_stimuli_original_animals_fish_3.png	L	0	0	0	138.831345798797	139.03183492925
121.051	0.2	104	2	0	15	32	0	4	0	0	0	stim001_stimuli_original_animals_birds_1.png	E	0	0	0	139.231353942072	139.431374714593
121.451	0.2	105	2	0	15	33	7	12	0	0	0	stim008_stimuli_original_animals_fish_4.png	T	0	0	0	139.631382809137	139.831383345416
121.851	0.2	106	2	0	15	34	15	11	0	0	0	stim016_stimuli_original_vehicles_planes_4.png	R	NaN	140.023944524582	0	140.03139534092	140.231397340074
122.251	0.2	107	2	0	15	35	13	14	0	0	0	stim014_stimuli_original_vehicles_planes_2.png	V	0	0	0	140.431402265094	140.631405971013
125.918	0.2	108	3	1	7	0	3	11	0	0	0	stim004_stimuli_original_animals_birds_4.png	R	0	0	0	144.098147438373	144.29815187573
126.318	0.2	109	3	1	7	1	1	15	0	0	0	stim002_stimuli_original_animals_birds_2.png	Y	0	0	0	144.498177036876	144.698161481763
126.718	0.2	110	3	1	7	2	4	14	0	0	0	stim005_stimuli_original_animals_fish_1.png	V	0	0	0	144.898163481033	145.098154265084
127.118	0.2	111	3	1	7	3	8	8	0	0	0	stim009_stimuli_original_vehicles_boats_1.png	K	0	0	0	145.298162115738	145.498165577766
127.518	0.2	112	3	1	7	4	9	2	0	0	0	stim010_stimuli_original_vehicles_boats_2.png	C	0	0	0	145.698181961779	145.898178840987
127.918	0.2	113	3	1	7	5	15	9	0	0	0	stim016_stimuli_original_vehicles_planes_4.png	L	0	0	0	146.098184253555	146.298187228036
128.318	0.2	114	3	1	7	6	6	0	0	0	0	stim007_stimuli_original_animals_fish_3.png	A	0	0	0	146.498197760666	146.698197565624
128.718	0.2	115	3	1	7	7	13	7	0	0	0	stim014_stimuli_original_vehicles_planes_2.png	J	0	0	0	146.898586977972	147.098245449713
129.118	0.2	116	3	1	7	8	10	1	0	1	0	stim011_stimuli_original_vehicles_boats_3.png	B	0	0	0	147.29823208903	147.498249448254
129.518	0.2	117	3	1	7	9	11	12	0	0	0	stim012_stimuli_original_vehicles_boats_4.png	T	0	0	0	147.698261687532	147.898258810514
129.918	0.2	118	3	1	7	10	4	1	1	1	1	stim005_stimuli_original_animals_fish_1.png	B	0	0	0	148.098280802136	148.298263784265
130.318	0.2	119	3	1	7	11	12	5	0	0	0	stim013_stimuli_original_vehicles_planes_1.png	F	0	0	0	148.498271878692	148.698270952213
130.718	0.2	120	3	1	7	12	4	6	1	0	0	stim005_stimuli_original_animals_fish_1.png	G	0	0	0	148.898282460053	149.098284703097
131.118	0.2	121	3	1	7	13	0	10	0	0	0	stim001_stimuli_original_animals_birds_1.png	Q	NaN	149.490056963637	1	149.298290847102	149.498307474889
131.518	0.2	122	3	1	7	14	5	3	0	0	0	stim006_stimuli_original_animals_fish_2.png	D	0	0	0	149.698302891222	149.898288311437
131.918	0.2	123	3	1	7	15	2	4	0	0	0	stim003_stimuli_original_animals_birds_3.png	E	0	0	0	150.098315910669	150.298314984189
132.318	0.2	124	3	1	7	16	14	1	0	0	0	stim015_stimuli_original_vehicles_planes_3.png	B	0	0	0	150.49832649203	150.69832556555
132.718	0.2	125	3	1	7	17	7	13	0	0	0	stim008_stimuli_original_animals_fish_4.png	U	0	0	0	150.898340486689	151.098336878349
133.118	0.2	126	3	1	7	18	13	7	0	0	0	stim014_stimuli_original_vehicles_planes_2.png	J	0	0	0	151.298343997565	151.498347459594
133.518	0.2	127	3	1	7	19	1	14	0	0	0	stim002_stimuli_original_animals_birds_2.png	V	0	0	0	151.698359698872	151.898357553291
133.918	0.2	128	3	1	7	20	4	2	0	0	0	stim005_stimuli_original_animals_fish_1.png	C	NaN	152.090942869545	0	152.098366135499	152.298531243228
134.318	0.2	129	3	1	7	21	3	5	0	0	0	stim004_stimuli_original_animals_birds_4.png	F	0	0	0	152.498378911056	152.698380178888
134.718	0.2	130	3	1	7	22	10	0	0	0	0	stim011_stimuli_original_vehicles_boats_3.png	A	0	0	0	152.898389004753	153.098388809711
135.118	0.2	131	3	1	7	23	6	4	0	1	0	stim007_stimuli_original_animals_fish_3.png	E	0	0	0	153.298394466052	153.498399634846
135.518	0.2	132	3	1	7	24	5	12	0	0	0	stim006_stimuli_original_animals_fish_2.png	T	0	0	0	153.69840846071	153.898414360941
135.918	0.2	133	3	1	7	25	1	4	1	1	1	stim002_stimuli_original_animals_birds_2.png	E	0	0	0	154.098416847759	154.298422991764
136.318	0.2	134	3	1	7	26	12	11	0	0	0	stim013_stimuli_original_vehicles_planes_1.png	R	0	0	0	154.498427916784	154.698436986422
136.718	0.2	135	3	1	7	27	1	10	1	0	0	stim002_stimuli_original_animals_birds_2.png	Q	0	0	0	154.898437522817	155.098443910596
137.118	0.2	136	3	1	7	28	7	13	0	0	0	stim008_stimuli_original_animals_fish_4.png	U	0	0	0	155.298451761366	155.498456930043
137.518	0.2	137	3	1	7	29	0	6	0	0	0	stim001_stimuli_original_animals_birds_1.png	G	0	0	0	155.698457954102	155.898468486615
137.918	0.2	138	3	1	7	30	9	15	0	0	0	stim010_stimuli_original_vehicles_boats_2.png	Y	0	0	0	156.098467804026	156.298483212711
138.318	0.2	139	3	1	7	31	2	9	0	0	0	stim003_stimuli_original_animals_birds_3.png	L	0	0	0	156.498481067247	156.698487698799
138.718	0.2	140	3	1	7	32	8	8	0	0	0	stim009_stimuli_original_vehicles_boats_1.png	K	0	0	0	156.898494574241	157.098495842074
139.118	0.2	141	3	1	7	33	14	4	0	0	0	stim015_stimuli_original_vehicles_planes_3.png	E	0	0	0	157.29850564315	157.498505691998
139.518	0.2	142	3	1	7	34	15	1	0	0	0	stim016_stimuli_original_vehicles_planes_4.png	B	0	0	0	157.698516712175	157.898517492344
139.918	0.2	143	3	1	7	35	11	3	0	0	0	stim012_stimuli_original_vehicles_boats_4.png	D	0	0	0	158.098520954489	158.298525147955
143.118	0.2	144	4	0	14	0	0	14	0	0	0	stim001_stimuli_original_animals_birds_1.png	V	0	0	0	161.298596584122	161.498590537696
143.518	0.2	145	4	0	14	1	8	9	0	0	0	stim009_stimuli_original_vehicles_boats_1.png	L	0	0	0	161.698613016866	161.898616235121
143.918	0.2	146	4	0	14	2	3	8	0	0	0	stim004_stimuli_original_animals_birds_4.png	K	0	0	0	162.098601655336	162.298625841271
144.318	0.2	147	4	0	14	3	4	6	0	0	0	stim005_stimuli_original_animals_fish_1.png	G	0	0	0	162.498654659488	162.698651538813
144.718	0.2	148	4	0	14	4	6	10	1	0	0	stim007_stimuli_original_animals_fish_3.png	Q	0	0	0	162.898661339888	163.098662120057
145.118	0.2	149	4	0	14	5	15	0	0	0	0	stim016_stimuli_original_vehicles_planes_4.png	A	0	0	0	163.29865485453	163.498656853801
145.518	0.2	150	4	0	14	6	6	15	1	0	1	stim007_stimuli_original_animals_fish_3.png	Y	0	0	0	163.698658853071	163.898665240849
145.918	0.2	151	4	0	14	7	11	1	0	0	0	stim012_stimuli_original_vehicles_boats_4.png	B	NaN	164.091260797111	1	164.098667971557	164.29867557832
146.318	0.2	152	4	0	14	8	5	2	0	0	0	stim006_stimuli_original_animals_fish_2.png	C	0	0	0	164.498683916638	164.698704933049
146.718	0.2	153	4	0	14	9	7	7	0	0	0	stim008_stimuli_original_animals_fish_4.png	J	0	0	0	164.898712296039	165.098691377207
147.118	0.2	154	4	0	14	10	1	12	0	0	0	stim002_stimuli_original_animals_birds_2.png	T	0	0	0	165.298708980321	165.498710735701
147.518	0.2	155	4	0	14	11	13	1	0	1	0	stim014_stimuli_original_vehicles_planes_2.png	B	0	0	0	165.698733702535	165.898743016063
147.918	0.2	156	4	0	14	12	9	11	0	0	0	stim010_stimuli_original_vehicles_boats_2.png	R	0	0	0	166.098748428631	166.298745307839
148.318	0.2	157	4	0	14	13	14	1	0	1	0	stim015_stimuli_original_vehicles_planes_3.png	B	0	0	0	166.498777295696	166.698740773019
148.718	0.2	158	4	0	14	14	6	3	0	0	0	stim007_stimuli_original_animals_fish_3.png	D	0	0	0	166.898768859915	167.098768908647
149.118	0.2	159	4	0	14	15	2	13	0	0	0	stim003_stimuli_original_animals_birds_3.png	U	0	0	0	167.298760180245	167.498781928094
149.518	0.2	160	4	0	14	16	12	4	0	0	0	stim013_stimuli_original_vehicles_planes_1.png	E	0	0	0	167.69877368724	167.898773492198
149.919	0.2	161	4	0	14	17	10	5	0	0	0	stim011_stimuli_original_vehicles_boats_3.png	F	0	0	0	168.098802798195	168.29880016495
150.319	0.2	162	4	0	14	18	5	10	0	0	0	stim006_stimuli_original_animals_fish_2.png	Q	0	0	0	168.498790705227	168.698810258764
150.719	0.2	163	4	0	14	19	4	12	0	0	0	stim005_stimuli_original_animals_fish_1.png	T	0	0	0	168.898821522715	169.098820840009
151.119	0.2	164	4	0	14	20	13	2	0	0	0	stim014_stimuli_original_vehicles_planes_2.png	C	0	0	0	169.298828203115	169.498833615682
151.519	0.2	165	4	0	14	21	3	6	0	0	0	stim004_stimuli_original_animals_birds_4.png	G	0	0	0	169.69882488728	169.898846635129
151.919	0.2	166	4	0	14	22	1	14	1	0	0	stim002_stimuli_original_animals_birds_2.png	V	0	0	0	170.098854729556	170.298837224022
152.319	0.2	167	4	0	14	23	11	9	0	0	0	stim012_stimuli_original_vehicles_boats_4.png	L	0	0	0	170.499275885988	170.698867066298
152.719	0.2	168	4	0	14	24	1	13	1	0	1	stim002_stimuli_original_animals_birds_2.png	U	0	0	0	170.89887125988	171.098876428558
153.119	0.2	169	4	0	14	25	12	1	0	0	0	stim013_stimuli_original_vehicles_planes_1.png	B	NaN	171.29146930296	1	171.298880134476	171.49887018709
153.519	0.2	170	4	0	14	26	7	7	0	0	0	stim008_stimuli_original_animals_fish_4.png	J	0	0	0	171.698879500618	171.898896372179
153.919	0.2	171	4	0	14	27	2	5	0	0	0	stim003_stimuli_original_animals_birds_3.png	F	0	0	0	172.098886424792	172.298908172525
154.319	0.2	172	4	0	14	28	1	11	0	0	0	stim002_stimuli_original_animals_birds_2.png	R	0	0	0	172.498914072756	172.6989163158
154.719	0.2	173	4	0	14	29	15	6	0	1	0	stim016_stimuli_original_vehicles_planes_4.png	G	0	0	0	172.898923191242	173.098910318105
155.119	0.2	174	4	0	14	30	0	15	0	0	0	stim001_stimuli_original_animals_birds_1.png	Y	0	0	0	173.298933284939	173.498938453733
155.519	0.2	175	4	0	14	31	10	6	0	1	0	stim011_stimuli_original_vehicles_boats_3.png	G	0	0	0	173.698944841512	173.89895147318
155.919	0.2	176	4	0	14	32	6	4	0	0	0	stim007_stimuli_original_animals_fish_3.png	E	0	0	0	174.09895615431	174.298970100121
156.319	0.2	177	4	0	14	33	8	3	0	0	0	stim009_stimuli_original_vehicles_boats_1.png	D	0	0	0	174.498976488016	174.698969466262
156.719	0.2	178	4	0	14	34	9	8	0	0	0	stim010_stimuli_original_vehicles_boats_2.png	K	0	0	0	174.898976585479	175.098983460921
157.119	0.2	179	4	0	14	35	14	0	0	0	0	stim015_stimuli_original_vehicles_planes_3.png	A	0	0	0	175.298986191629	175.498991360306
160.435	0.2	180	5	1	45	0	8	15	0	0	0	stim009_stimuli_original_vehicles_boats_1.png	Y	0	0	0	178.615741946269	178.815769789275
160.835	0.2	181	5	1	45	1	12	11	0	0	0	stim013_stimuli_original_vehicles_planes_1.png	R	0	0	0	179.015748870443	179.215750869596
161.235	0.2	182	5	1	45	2	15	10	0	0	0	stim016_stimuli_original_vehicles_planes_4.png	Q	0	0	0	179.415764084086	179.615768033895
161.635	0.2	183	5	1	45	3	7	0	0	0	0	stim008_stimuli_original_animals_fish_4.png	A	0	0	0	179.815774665447	180.015772763756
162.035	0.2	184	5	1	45	4	10	12	0	0	0	stim011_stimuli_original_vehicles_boats_3.png	T	0	0	0	180.215783783933	180.415768472711
162.435	0.2	185	5	1	45	5	13	5	0	0	0	stim014_stimuli_original_vehicles_planes_2.png	F	0	0	0	180.615776567138	180.815822452074
162.835	0.2	186	5	1	45	6	9	1	1	0	0	stim010_stimuli_original_vehicles_boats_2.png	B	0	0	0	181.015811285586	181.215799143887
163.235	0.2	187	5	1	45	7	6	8	0	0	0	stim007_stimuli_original_animals_fish_3.png	K	0	0	0	181.415805044118	181.615823866217
163.636	0.2	188	5	1	45	8	9	2	1	0	0	stim010_stimuli_original_vehicles_boats_2.png	C	0	0	0	181.815835130168	182.015823476133
164.036	0.2	189	5	1	45	9	1	4	0	0	0	stim002_stimuli_original_animals_birds_2.png	E	0	0	0	182.21584961249	182.415849661222
164.436	0.2	190	5	1	45	10	4	6	0	1	0	stim005_stimuli_original_animals_fish_1.png	G	0	0	0	182.615853123367	182.815832692082
164.836	0.2	191	5	1	45	11	3	14	0	0	0	stim004_stimuli_original_animals_birds_4.png	V	0	0	0	183.015841030399	183.215842542006
165.236	0.2	192	5	1	45	12	2	6	0	1	1	stim003_stimuli_original_animals_birds_3.png	G	0	0	0	183.415846979362	183.616134479409
165.636	0.2	193	5	1	45	13	9	3	0	0	0	stim010_stimuli_original_vehicles_boats_2.png	D	0	0	0	183.815893644467	184.015872969409
166.036	0.2	194	5	1	45	14	5	13	0	0	0	stim006_stimuli_original_animals_fish_2.png	U	0	0	0	184.215894961031	184.415898179286
166.436	0.2	195	5	1	45	15	14	6	0	0	0	stim015_stimuli_original_vehicles_planes_3.png	G	0	0	0	184.615905786166	184.815908516874
166.836	0.2	196	5	1	45	16	0	9	0	0	0	stim001_stimuli_original_animals_birds_1.png	L	0	0	0	185.015915879863	185.215923242969
167.236	0.2	197	5	1	45	17	11	7	0	0	0	stim012_stimuli_original_vehicles_boats_4.png	J	0	0	0	185.415926461224	185.615915294737
167.636	0.2	198	5	1	45	18	7	11	0	0	0	stim008_stimuli_original_animals_fish_4.png	R	0	0	0	185.815926802577	186.015938797966
168.036	0.2	199	5	1	45	19	9	0	0	0	0	stim010_stimuli_original_vehicles_boats_2.png	A	0	0	0	186.21595908294	186.415951817413
168.436	0.2	200	5	1	45	20	6	14	0	0	0	stim007_stimuli_original_animals_fish_3.png	V	0	0	0	186.615946502308	186.815964105423
168.836	0.2	201	5	1	45	21	13	5	0	0	0	stim014_stimuli_original_vehicles_planes_2.png	F	NaN	187.207735390635	0	187.015970736975	187.21595883905
169.236	0.2	202	5	1	45	22	3	9	0	0	0	stim004_stimuli_original_animals_birds_4.png	L	0	0	0	187.415980586899	187.615982098505
169.636	0.2	203	5	1	45	23	6	2	1	0	0	stim007_stimuli_original_animals_fish_3.png	C	0	0	0	187.815991899697	188.015978295123
170.036	0.2	204	5	1	45	24	14	3	0	0	0	stim015_stimuli_original_vehicles_planes_3.png	D	0	0	0	188.215988340089	188.415981318336
170.436	0.2	205	5	1	45	25	6	4	1	0	0	stim007_stimuli_original_animals_fish_3.png	E	0	0	0	188.615992582287	188.816003114916
170.836	0.2	206	5	1	45	26	4	1	0	0	0	stim005_stimuli_original_animals_fish_1.png	B	0	0	0	189.01599292364	189.216010282864
171.236	0.2	207	5	1	45	27	2	9	0	1	0	stim003_stimuli_original_animals_birds_3.png	L	0	0	0	189.416015695431	189.616021107999
171.636	0.2	208	5	1	45	28	8	6	0	0	0	stim009_stimuli_original_vehicles_boats_1.png	G	0	0	0	189.816044074832	190.016048512189
172.036	0.2	209	5	1	45	29	1	9	0	1	1	stim002_stimuli_original_animals_birds_2.png	L	0	0	0	190.216054656194	190.416057386901
172.436	0.2	210	5	1	45	30	5	13	0	0	0	stim006_stimuli_original_animals_fish_2.png	U	0	0	0	190.616049146163	190.816072112997
172.836	0.2	211	5	1	45	31	12	10	0	0	0	stim013_stimuli_original_vehicles_planes_1.png	Q	0	0	0	191.016075087478	191.216079280945
173.236	0.2	212	5	1	45	32	0	7	0	0	0	stim001_stimuli_original_animals_birds_1.png	J	0	0	0	191.416089813574	191.616067675641
173.636	0.2	213	5	1	45	33	10	15	0	0	0	stim011_stimuli_original_vehicles_boats_3.png	Y	0	0	0	191.81609210535	192.016100199777
174.036	0.2	214	5	1	45	34	11	12	0	0	0	stim012_stimuli_original_vehicles_boats_4.png	T	0	0	0	192.216108538094	192.416106636403
174.436	0.2	215	5	1	45	35	15	8	0	0	0	stim016_stimuli_original_vehicles_planes_4.png	K	0	0	0	192.616113267955	192.816136722453
202.836	0.2	216	6	0	43	0	13	11	0	0	0	stim014_stimuli_original_vehicles_planes_2.png	R	NaN	221.009606823092	0	221.016860641423	221.216866785428
203.236	0.2	217	6	0	43	1	6	1	0	0	0	stim007_stimuli_original_animals_fish_3.png	B	0	0	0	221.416872441769	221.616887119133
203.636	0.2	218	6	0	43	2	9	15	0	0	0	stim010_stimuli_original_vehicles_boats_2.png	Y	0	0	0	221.816889362177	222.016891848994
204.036	0.2	219	6	0	43	3	4	0	0	0	0	stim005_stimuli_original_animals_fish_1.png	A	0	0	0	222.216896042577	222.416899748496
204.436	0.2	220	6	0	43	4	7	3	0	0	0	stim008_stimuli_original_animals_fish_4.png	D	0	0	0	222.616907842923	222.816904722131
204.836	0.2	221	6	0	43	5	2	6	0	0	0	stim003_stimuli_original_animals_birds_3.png	G	0	0	0	223.016914523323	223.216920667328
205.236	0.2	222	6	0	43	6	10	14	1	0	0	stim011_stimuli_original_vehicles_boats_3.png	V	0	0	0	223.416925348458	223.616929054377
205.636	0.2	223	6	0	43	7	5	13	0	0	0	stim006_stimuli_original_animals_fish_2.png	U	0	0	0	223.816935685929	224.016936709988
206.036	0.2	224	6	0	43	8	10	12	1	0	1	stim011_stimuli_original_vehicles_boats_3.png	T	0	0	0	224.216947242501	224.41694826656
206.437	0.2	225	6	0	43	9	8	10	0	0	0	stim009_stimuli_original_vehicles_boats_1.png	Q	NaN	224.808729304234	1	224.616962456261	224.816959823132
206.837	0.2	226	6	0	43	10	3	4	0	0	0	stim004_stimuli_original_animals_birds_4.png	E	0	0	0	225.016970355646	225.216971867252
207.237	0.2	227	6	0	43	11	0	7	0	0	0	stim001_stimuli_original_animals_birds_1.png	J	0	0	0	225.416980937007	225.616980254301
207.637	0.2	228	6	0	43	12	10	14	0	1	0	stim011_stimuli_original_vehicles_boats_3.png	V	0	0	0	225.816991762142	226.016993029974
208.037	0.2	229	6	0	43	13	11	5	0	0	0	stim012_stimuli_original_vehicles_boats_4.png	F	0	0	0	226.216997711104	226.417008243618
208.437	0.2	230	6	0	43	14	12	14	0	1	0	stim013_stimuli_original_vehicles_planes_1.png	V	0	0	0	226.617009267677	226.817015655455
208.837	0.2	231	6	0	43	15	15	9	0	0	0	stim016_stimuli_original_vehicles_planes_4.png	L	0	0	0	227.01745309832	227.217030625325
209.237	0.2	232	6	0	43	16	14	8	0	0	0	stim015_stimuli_original_vehicles_planes_3.png	K	0	0	0	227.417031649384	227.61703584285
209.637	0.2	233	6	0	43	17	1	2	0	0	0	stim002_stimuli_original_animals_birds_2.png	C	NaN	228.008807859616	0	227.817042718292	228.017045936664
210.037	0.2	234	6	0	43	18	2	1	0	0	0	stim003_stimuli_original_animals_birds_3.png	B	0	0	0	228.21704184066	228.417059443658
210.437	0.2	235	6	0	43	19	8	14	0	0	0	stim009_stimuli_original_vehicles_boats_1.png	V	0	0	0	228.617070220062	228.817072950653
210.837	0.2	236	6	0	43	20	9	15	0	0	0	stim010_stimuli_original_vehicles_boats_2.png	Y	0	0	0	229.017078119447	229.217064027325
211.237	0.2	237	6	0	43	21	14	12	1	0	0	stim015_stimuli_original_vehicles_planes_3.png	T	0	0	0	229.417087237933	229.617094600922
211.637	0.2	238	6	0	43	22	5	11	0	0	0	stim006_stimuli_original_animals_fish_2.png	R	0	0	0	229.817106108763	230.017104450846
212.037	0.2	239	6	0	43	23	14	10	1	0	1	stim015_stimuli_original_vehicles_planes_3.png	Q	0	0	0	230.217107425327	230.417099428363
212.437	0.2	240	6	0	43	24	7	0	0	0	0	stim008_stimuli_original_animals_fish_4.png	A	0	0	0	230.617121176212	230.817121956381
212.837	0.2	241	6	0	43	25	4	3	0	0	0	stim005_stimuli_original_animals_fish_1.png	D	NaN	231.009663630743	1	231.017115178518	231.217109131976
213.237	0.2	242	6	0	43	26	10	8	0	0	0	stim011_stimuli_original_vehicles_boats_3.png	K	0	0	0	231.417122102692	231.617125808611
213.637	0.2	243	6	0	43	27	12	10	0	1	0	stim013_stimuli_original_vehicles_planes_1.png	Q	0	0	0	231.817134878249	232.017123224214
214.037	0.2	244	6	0	43	28	13	5	0	0	0	stim014_stimuli_original_vehicles_planes_2.png	F	0	0	0	232.217143021524	232.417643123423
214.437	0.2	245	6	0	43	29	14	10	0	1	0	stim015_stimuli_original_vehicles_planes_3.png	Q	0	0	0	232.617184079019	232.817177301156
214.837	0.2	246	6	0	43	30	6	2	0	0	0	stim007_stimuli_original_animals_fish_3.png	C	0	0	0	233.017187346122	233.217187394854
215.237	0.2	247	6	0	43	31	3	7	0	0	0	stim004_stimuli_original_animals_birds_4.png	J	0	0	0	233.417182811187	233.617206509458
215.637	0.2	248	6	0	43	32	0	4	0	0	0	stim001_stimuli_original_animals_birds_1.png	E	0	0	0	233.817188272602	234.01720880135
216.037	0.2	249	6	0	43	33	15	9	0	0	0	stim016_stimuli_original_vehicles_planes_4.png	L	0	0	0	234.217200804385	234.417203047429
216.437	0.2	250	6	0	43	34	1	6	0	0	0	stim002_stimuli_original_animals_birds_2.png	G	0	0	0	234.61722942756	234.817229232518
216.837	0.2	251	6	0	43	35	11	13	0	0	0	stim012_stimuli_original_vehicles_boats_4.png	U	0	0	0	235.01723610796	235.21722567291
220.203	0.2	252	7	1	41	0	12	12	0	0	0	stim013_stimuli_original_vehicles_planes_1.png	T	0	0	0	238.38398035476	238.583998445421
220.604	0.2	253	7	1	41	1	1	7	0	0	0	stim002_stimuli_original_animals_birds_2.png	J	0	0	0	238.784024825669	238.98399171629
221.003	0.2	254	7	1	41	2	0	10	0	0	0	stim001_stimuli_original_animals_birds_1.png	Q	0	0	0	239.184019803186	239.384026190965
221.404	0.2	255	7	1	41	3	5	6	0	0	0	stim006_stimuli_original_animals_fish_2.png	G	0	0	0	239.584028190235	239.784032139927
221.804	0.2	256	7	1	41	4	4	15	1	0	0	stim005_stimuli_original_animals_fish_1.png	Y	0	0	0	239.984038527706	240.184470606851
222.204	0.2	257	7	1	41	5	14	11	0	1	0	stim015_stimuli_original_vehicles_planes_3.png	R	0	0	0	240.38401619473	240.584017218789
222.604	0.2	258	7	1	41	6	4	13	1	0	0	stim005_stimuli_original_animals_fish_1.png	U	0	0	0	240.784024581779	240.984029750573
223.004	0.2	259	7	1	41	7	10	11	0	1	1	stim011_stimuli_original_vehicles_boats_3.png	R	0	0	0	241.184036626015	241.384051303379
223.404	0.2	260	7	1	41	8	3	1	0	0	0	stim004_stimuli_original_animals_birds_4.png	B	NaN	241.576599316788	1	241.5840445254	241.78404945042
223.804	0.2	261	7	1	41	9	8	5	0	0	0	stim009_stimuli_original_vehicles_boats_1.png	F	0	0	0	241.984058763948	242.184065883164
224.204	0.2	262	7	1	41	10	11	4	0	0	0	stim012_stimuli_original_vehicles_boats_4.png	E	0	0	0	242.38407300238	242.584103771136
224.604	0.2	263	7	1	41	11	2	11	0	0	0	stim003_stimuli_original_animals_birds_3.png	R	0	0	0	242.78410869604	242.984100942966
225.004	0.2	264	7	1	41	12	9	0	0	0	0	stim010_stimuli_original_vehicles_boats_2.png	A	0	0	0	243.184121471713	243.384111280437
225.404	0.2	265	7	1	41	13	6	8	0	0	0	stim007_stimuli_original_animals_fish_3.png	K	0	0	0	243.584130590199	243.784135758877
225.804	0.2	266	7	1	41	14	13	9	0	0	0	stim014_stimuli_original_vehicles_planes_2.png	L	0	0	0	243.984141902882	244.184164382168
226.204	0.2	267	7	1	41	15	7	2	0	0	0	stim008_stimuli_original_animals_fish_4.png	C	0	0	0	244.384151021368	244.58415497106
226.604	0.2	268	7	1	41	16	15	3	0	0	0	stim016_stimuli_original_vehicles_planes_4.png	D	0	0	0	244.78414746176	244.98414946103
227.004	0.2	269	7	1	41	17	4	14	0	0	0	stim005_stimuli_original_animals_fish_1.png	V	0	0	0	245.184159018332	245.38415028993
227.404	0.2	270	7	1	41	18	14	4	0	0	0	stim015_stimuli_original_vehicles_planes_3.png	E	0	0	0	245.584162772982	245.784161358955
227.804	0.2	271	7	1	41	19	3	15	0	0	0	stim004_stimuli_original_animals_birds_4.png	Y	0	0	0	245.98419383436	246.184197784052
228.204	0.2	272	7	1	41	20	2	7	0	0	0	stim003_stimuli_original_animals_birds_3.png	J	0	0	0	246.384204415721	246.584210559609
228.604	0.2	273	7	1	41	21	9	13	0	0	0	stim010_stimuli_original_vehicles_boats_2.png	U	0	0	0	246.78419841791	246.984217240009
229.004	0.2	274	7	1	41	22	8	6	0	0	0	stim009_stimuli_original_vehicles_boats_1.png	G	0	0	0	247.184222408803	247.384213680401
229.404	0.2	275	7	1	41	23	0	9	0	0	0	stim001_stimuli_original_animals_birds_1.png	L	0	0	0	247.584236403462	247.784245229326
229.804	0.2	276	7	1	41	24	11	2	0	0	0	stim012_stimuli_original_vehicles_boats_4.png	C	0	0	0	247.9842655143	248.184250690741
230.204	0.2	277	7	1	41	25	4	11	0	0	0	stim005_stimuli_original_animals_fish_1.png	R	0	0	0	248.384258785169	248.584283946315
230.604	0.2	278	7	1	41	26	5	8	0	0	0	stim006_stimuli_original_animals_fish_2.png	K	0	0	0	248.784253518912	248.984270146699
231.004	0.2	279	7	1	41	27	1	3	0	0	0	stim002_stimuli_original_animals_birds_2.png	D	0	0	0	249.184280435438	249.384294137591
231.404	0.2	280	7	1	41	28	11	10	1	0	0	stim012_stimuli_original_vehicles_boats_4.png	Q	0	0	0	249.584287359612	249.784296916914
231.804	0.2	281	7	1	41	29	13	4	0	1	0	stim014_stimuli_original_vehicles_planes_2.png	E	0	0	0	249.984308912419	250.184276534477
232.204	0.2	282	7	1	41	30	11	14	1	0	0	stim012_stimuli_original_vehicles_boats_4.png	V	0	0	0	250.384282190935	250.584281020565
232.604	0.2	283	7	1	41	31	15	4	0	1	1	stim016_stimuli_original_vehicles_planes_4.png	E	0	0	0	250.784503667383	250.98433329328
233.004	0.2	284	7	1	41	32	6	5	0	0	0	stim007_stimuli_original_animals_fish_3.png	F	0	0	0	251.184332854464	251.384336560383
233.404	0.2	285	7	1	41	33	10	0	0	0	0	stim011_stimuli_original_vehicles_boats_3.png	A	0	0	0	251.584328319645	251.784347385517
233.804	0.2	286	7	1	41	34	7	1	0	0	0	stim008_stimuli_original_animals_fish_4.png	B	0	0	0	251.984353773296	252.184361623949
234.204	0.2	287	7	1	41	35	12	12	0	0	0	stim013_stimuli_original_vehicles_planes_1.png	T	0	0	0	252.38434972614	252.584371230099
237.204	0.2	288	8	0	2	0	3	8	0	0	0	stim004_stimuli_original_animals_birds_4.png	K	0	0	0	255.384424819378	255.584424136672
237.604	0.2	289	8	0	2	1	1	3	0	0	0	stim002_stimuli_original_animals_birds_2.png	D	0	0	0	255.784422478871	255.984426428564
238.004	0.2	290	8	0	2	2	4	7	0	0	0	stim005_stimuli_original_animals_fish_1.png	J	0	0	0	256.18443354778	256.384446274606
238.404	0.2	291	8	0	2	3	13	10	0	0	0	stim014_stimuli_original_vehicles_planes_2.png	Q	0	0	0	256.584445104352	256.784448810271
238.804	0.2	292	8	0	2	4	0	9	0	0	0	stim001_stimuli_original_animals_birds_1.png	L	0	0	0	256.984466657043	257.184469631524
239.204	0.2	293	8	0	2	5	2	12	0	1	0	stim003_stimuli_original_animals_birds_3.png	T	0	0	0	257.384484796552	257.584486795706
239.604	0.2	294	8	0	2	6	5	5	1	0	0	stim006_stimuli_original_animals_fish_2.png	F	0	0	0	257.784537800704	257.984515175223
240.004	0.2	295	8	0	2	7	12	12	0	1	0	stim013_stimuli_original_vehicles_planes_1.png	T	0	0	0	258.184810233302	258.384516735561
240.404	0.2	296	8	0	2	8	5	13	1	0	1	stim006_stimuli_original_animals_fish_2.png	U	0	0	0	258.584538727184	258.784529998782
240.804	0.2	297	8	0	2	9	10	14	0	0	0	stim011_stimuli_original_vehicles_boats_3.png	V	0	0	0	258.9845324856	259.184524732525
241.204	0.2	298	8	0	2	10	6	1	0	0	0	stim007_stimuli_original_animals_fish_3.png	B	0	0	0	259.384552575531	259.584543115692
241.604	0.2	299	8	0	2	11	7	6	0	0	0	stim008_stimuli_original_animals_fish_4.png	G	0	0	0	259.784568276838	259.984568081796
242.004	0.2	300	8	0	2	12	5	15	0	0	0	stim006_stimuli_original_animals_fish_2.png	Y	0	0	0	260.184568130528	260.384573055548
242.404	0.2	301	8	0	2	13	8	11	0	0	0	stim009_stimuli_original_vehicles_boats_1.png	R	0	0	0	260.584577980451	260.78458753787
242.804	0.2	302	8	0	2	14	15	12	0	0	0	stim016_stimuli_original_vehicles_planes_4.png	T	0	0	0	260.98459197511	261.184608602896
243.204	0.2	303	8	0	2	15	11	0	0	0	0	stim012_stimuli_original_vehicles_boats_4.png	A	0	0	0	261.384597924072	261.584604068077
243.604	0.2	304	8	0	2	16	14	4	0	0	0	stim015_stimuli_original_vehicles_planes_3.png	E	0	0	0	261.78460826166	261.984616112313
244.004	0.2	305	8	0	2	17	9	2	0	0	0	stim010_stimuli_original_vehicles_boats_2.png	C	0	0	0	262.184627863928	262.384620842175
244.404	0.2	306	8	0	2	18	2	9	0	0	0	stim003_stimuli_original_animals_birds_3.png	L	0	0	0	262.584632106125	262.784634836833
244.804	0.2	307	8	0	2	19	4	14	0	0	0	stim005_stimuli_original_animals_fish_1.png	V	0	0	0	262.984641956049	263.184644199093
245.204	0.2	308	8	0	2	20	0	11	0	0	0	stim001_stimuli_original_animals_birds_1.png	R	0	0	0	263.38464985555	263.584816182265
245.604	0.2	309	8	0	2	21	12	15	0	0	0	stim013_stimuli_original_vehicles_planes_1.png	Y	0	0	0	263.78466189967	263.984665361815
246.004	0.2	310	8	0	2	22	11	8	0	0	0	stim012_stimuli_original_vehicles_boats_4.png	K	0	0	0	264.184676138218	264.384674967849
246.404	0.2	311	8	0	2	23	15	5	0	0	0	stim016_stimuli_original_vehicles_planes_4.png	F	0	0	0	264.584684525151	264.784686524421
246.804	0.2	312	8	0	2	24	6	7	0	0	0	stim007_stimuli_original_animals_fish_3.png	J	0	0	0	264.984693643637	265.184701250517
247.204	0.2	313	8	0	2	25	1	6	0	0	0	stim002_stimuli_original_animals_birds_2.png	G	0	0	0	265.384703981224	265.584705980495
247.604	0.2	314	8	0	2	26	14	10	0	0	0	stim015_stimuli_original_vehicles_planes_3.png	Q	0	0	0	265.784686768311	265.984689498902
248.004	0.2	315	8	0	2	27	13	5	0	1	0	stim014_stimuli_original_vehicles_planes_2.png	F	0	0	0	266.184698080993	266.384702274576
248.404	0.2	316	8	0	2	28	12	12	1	0	0	stim013_stimuli_original_vehicles_planes_1.png	T	0	0	0	266.584709881339	266.784714318695
248.804	0.2	317	8	0	2	29	5	5	0	1	0	stim006_stimuli_original_animals_fish_2.png	F	0	0	0	266.984720706474	267.184724900057
249.204	0.2	318	8	0	2	30	12	2	1	0	1	stim013_stimuli_original_vehicles_planes_1.png	C	0	0	0	267.384730556398	267.584731336567
249.604	0.2	319	8	0	2	31	9	0	0	0	0	stim010_stimuli_original_vehicles_boats_2.png	A	NaN	267.777327136602	1	267.784739187337	267.984746062662
250.004	0.2	320	8	0	2	32	10	13	0	0	0	stim011_stimuli_original_vehicles_boats_3.png	U	0	0	0	268.184752206667	268.384755425039
250.404	0.2	321	8	0	2	33	7	4	0	0	0	stim008_stimuli_original_animals_fish_4.png	E	0	0	0	268.584762788028	268.784766006283
250.804	0.2	322	8	0	2	34	3	1	0	0	0	stim004_stimuli_original_animals_birds_4.png	B	0	0	0	268.98478263407	269.184778538067
251.204	0.2	323	8	0	2	35	8	3	0	0	0	stim009_stimuli_original_vehicles_boats_1.png	D	0	0	0	269.384782487876	269.584788144217
255.888	0.2	324	9	1	47	0	10	5	0	0	0	stim011_stimuli_original_vehicles_boats_3.png	F	0	0	0	274.068266885472	274.268274004688
256.288	0.2	325	9	1	47	1	5	4	0	0	0	stim006_stimuli_original_animals_fish_2.png	E	0	0	0	274.468288682052	274.668284829822
256.688	0.2	326	9	1	47	2	9	13	0	0	0	stim010_stimuli_original_vehicles_boats_2.png	U	0	0	0	274.868289023405	275.068295411183
257.088	0.2	327	9	1	47	3	8	11	0	0	0	stim009_stimuli_original_vehicles_boats_1.png	R	0	0	0	275.268305699923	275.468309405842
257.488	0.2	328	9	1	47	4	7	0	0	0	0	stim008_stimuli_original_animals_fish_4.png	A	0	0	0	275.668315062183	275.868290973827
257.888	0.2	329	9	1	47	5	11	9	0	1	0	stim012_stimuli_original_vehicles_boats_4.png	L	0	0	0	276.068299799808	276.268326667603
258.288	0.2	330	9	1	47	6	3	8	0	0	0	stim004_stimuli_original_animals_birds_4.png	K	0	0	0	276.468333055382	276.668326521292
258.688	0.2	331	9	1	47	7	0	9	0	1	1	stim001_stimuli_original_animals_birds_1.png	L	0	0	0	276.868346074829	277.068348561646
259.088	0.2	332	9	1	47	8	13	10	0	0	0	stim014_stimuli_original_vehicles_planes_2.png	Q	0	0	0	277.268339101807	277.468362312531
259.488	0.2	333	9	1	47	9	1	3	0	0	0	stim002_stimuli_original_animals_birds_2.png	D	0	0	0	277.668364799349	277.868366310955
259.888	0.2	334	9	1	47	10	3	12	1	0	0	stim004_stimuli_original_animals_birds_4.png	T	0	0	0	278.06836952921	278.268365189433
260.288	0.2	335	9	1	47	11	2	6	0	0	0	stim003_stimuli_original_animals_birds_3.png	G	0	0	0	278.468388643931	278.668376258458
260.688	0.2	336	9	1	47	12	3	14	1	0	0	stim004_stimuli_original_animals_birds_4.png	V	0	0	0	278.868371431017	279.068380500656
261.088	0.2	337	9	1	47	13	15	7	0	0	0	stim016_stimuli_original_vehicles_planes_4.png	J	0	0	0	279.268392008496	279.468414243893
261.488	0.2	338	9	1	47	14	12	1	0	0	0	stim013_stimuli_original_vehicles_planes_1.png	B	0	0	0	279.668422094546	279.868406295776
261.888	0.2	339	9	1	47	15	4	2	0	0	0	stim005_stimuli_original_animals_fish_1.png	C	0	0	0	280.068413414992	280.268433699966
262.288	0.2	340	9	1	47	16	14	9	0	0	0	stim015_stimuli_original_vehicles_planes_3.png	L	0	0	0	280.468425703002	280.66844623175
262.688	0.2	341	9	1	47	17	6	15	0	0	0	stim007_stimuli_original_animals_fish_3.png	Y	0	0	0	280.86845359474	281.068454374908
263.088	0.2	342	9	1	47	18	15	6	0	0	0	stim016_stimuli_original_vehicles_planes_4.png	G	NaN	281.260996780708	0	281.268462956999	281.468468613457
263.488	0.2	343	9	1	47	19	9	14	0	0	0	stim010_stimuli_original_vehicles_boats_2.png	V	0	0	0	281.668473050697	281.868476756616
263.888	0.2	344	9	1	47	20	2	4	0	0	0	stim003_stimuli_original_animals_birds_3.png	E	0	0	0	282.068486557808	282.268491726601
264.288	0.2	345	9	1	47	21	1	12	0	0	0	stim002_stimuli_original_animals_birds_2.png	T	0	0	0	282.468483729637	282.66848767933
264.688	0.2	346	9	1	47	22	7	15	0	0	0	stim008_stimuli_original_animals_fish_4.png	Y	0	0	0	282.868500162382	283.068500942551
265.088	0.2	347	9	1	47	23	14	3	0	1	0	stim015_stimuli_original_vehicles_planes_3.png	D	NaN	283.261086015031	0	283.268953745486	283.46849811438
265.488	0.2	348	9	1	47	24	6	2	0	0	0	stim007_stimuli_original_animals_fish_3.png	C	0	0	0	283.668497675564	283.868505769991
265.888	0.2	349	9	1	47	25	12	3	0	1	1	stim013_stimuli_original_vehicles_planes_1.png	D	0	0	0	284.068511670223	284.268516595126
266.288	0.2	350	9	1	47	26	3	1	0	0	0	stim004_stimuli_original_animals_birds_4.png	B	0	0	0	284.468550045742	284.668551557348
266.688	0.2	351	9	1	47	27	10	13	0	0	0	stim011_stimuli_original_vehicles_boats_3.png	U	0	0	0	284.868561602314	285.06856335781
267.088	0.2	352	9	1	47	28	9	0	1	0	0	stim010_stimuli_original_vehicles_boats_2.png	A	0	0	0	285.26855292276	285.468573207618
267.488	0.2	353	9	1	47	29	8	3	0	0	0	stim009_stimuli_original_vehicles_boats_1.png	D	0	0	0	285.668583496474	285.868586227065
267.888	0.2	354	9	1	47	30	9	11	1	0	0	stim010_stimuli_original_vehicles_boats_2.png	R	0	0	0	286.068572866381	286.268594126566
268.288	0.2	355	9	1	47	31	0	7	0	0	0	stim001_stimuli_original_animals_birds_1.png	J	0	0	0	286.468585885712	286.668606170686
268.688	0.2	356	9	1	47	32	11	8	0	0	0	stim012_stimuli_original_vehicles_boats_4.png	K	0	0	0	286.868612314691	287.068615776836
269.088	0.2	357	9	1	47	33	13	9	0	0	0	stim014_stimuli_original_vehicles_planes_2.png	L	0	0	0	287.268628015998	287.468624651432
269.488	0.2	358	9	1	47	34	4	5	0	0	0	stim005_stimuli_original_animals_fish_1.png	F	0	0	0	287.66865468875	287.868638889981
269.888	0.2	359	9	1	47	35	5	10	0	0	0	stim006_stimuli_original_animals_fish_2.png	Q	0	0	0	288.068629917689	288.268643376068
273.338	0.2	360	10	0	35	0	0	6	0	0	0	stim001_stimuli_original_animals_birds_1.png	G	0	0	0	291.518728221767	291.718737535179
273.738	0.2	361	10	0	35	1	2	7	0	0	0	stim003_stimuli_original_animals_birds_3.png	J	0	0	0	291.918727831566	292.118746897555
274.138	0.2	362	10	0	35	2	3	4	0	0	0	stim004_stimuli_original_animals_birds_4.png	E	0	0	0	292.318755479646	292.518758697901
274.538	0.2	363	10	0	35	3	14	3	0	0	0	stim015_stimuli_original_vehicles_planes_3.png	D	0	0	0	292.718748994288	292.91877366777
274.938	0.2	364	10	0	35	4	8	1	0	0	0	stim009_stimuli_original_vehicles_boats_1.png	B	0	0	0	293.11877859279	293.318782298593
275.338	0.2	365	10	0	35	5	12	13	1	0	0	stim013_stimuli_original_vehicles_planes_1.png	U	0	0	0	293.518771619769	293.718797756126
275.738	0.2	366	10	0	35	6	1	14	0	0	0	stim002_stimuli_original_animals_birds_2.png	V	0	0	0	293.91879999917	294.118802973651
276.138	0.2	367	10	0	35	7	12	0	1	0	1	stim013_stimuli_original_vehicles_planes_1.png	A	0	0	0	294.318814969156	294.518796975957
276.538	0.2	368	10	0	35	8	5	15	0	0	0	stim006_stimuli_original_animals_fish_2.png	Y	0	0	0	294.718819455244	294.918807069655
276.938	0.2	369	10	0	35	9	9	10	0	0	0	stim010_stimuli_original_vehicles_boats_2.png	Q	0	0	0	295.118836375535	295.318844226189
277.338	0.2	370	10	0	35	10	6	12	0	0	0	stim007_stimuli_original_animals_fish_3.png	T	0	0	0	295.518823063583	295.71884237323
277.738	0.2	371	10	0	35	11	12	2	0	0	0	stim013_stimuli_original_vehicles_planes_1.png	C	0	0	0	295.91883583914	296.118856368004
278.138	0.2	372	10	0	35	12	4	15	0	1	0	stim005_stimuli_original_animals_fish_1.png	Y	0	0	0	296.318862268119	296.519097349141
278.538	0.2	373	10	0	35	13	11	11	0	0	0	stim012_stimuli_original_vehicles_boats_4.png	R	0	0	0	296.718857001862	296.918886307743
278.938	0.2	374	10	0	35	14	10	15	0	1	0	stim011_stimuli_original_vehicles_boats_3.png	Y	0	0	0	297.118884406053	297.318888111971
279.338	0.2	375	10	0	35	15	7	5	0	0	0	stim008_stimuli_original_animals_fish_4.png	F	0	0	0	297.518876214046	297.718894792371
279.738	0.2	376	10	0	35	16	13	9	0	0	0	stim014_stimuli_original_vehicles_planes_2.png	L	0	0	0	297.918887770618	298.118906592717
280.138	0.2	377	10	0	35	17	15	8	0	0	0	stim016_stimuli_original_vehicles_planes_4.png	K	NaN	298.311505318503	0	298.318913955707	298.518916442641
280.538	0.2	378	10	0	35	18	8	15	0	0	0	stim009_stimuli_original_vehicles_boats_1.png	Y	0	0	0	298.718913809396	298.918917271541
280.938	0.2	379	10	0	35	19	9	13	0	0	0	stim010_stimuli_original_vehicles_boats_2.png	U	0	0	0	299.118936337414	299.318943944294
281.338	0.2	380	10	0	35	20	5	7	0	0	0	stim006_stimuli_original_animals_fish_2.png	J	0	0	0	299.518943749252	299.718931851326
281.738	0.2	381	10	0	35	21	15	10	1	0	0	stim016_stimuli_original_vehicles_planes_4.png	Q	0	0	0	299.918925073463	300.118933167891
282.138	0.2	382	10	0	35	22	11	11	0	0	0	stim012_stimuli_original_vehicles_boats_4.png	R	NaN	300.510733954143	0	300.318969788146	300.518976907362
282.538	0.2	383	10	0	35	23	15	4	1	0	1	stim016_stimuli_original_vehicles_planes_4.png	E	0	0	0	300.718963302788	300.918969446793
282.938	0.2	384	10	0	35	24	2	12	0	0	0	stim003_stimuli_original_animals_birds_3.png	T	0	0	0	301.118969983188	301.318994900445
283.338	0.2	385	10	0	35	25	12	6	0	0	0	stim013_stimuli_original_vehicles_planes_1.png	G	0	0	0	301.518972274964	301.718986464664
283.738	0.2	386	10	0	35	26	10	9	0	0	0	stim011_stimuli_original_vehicles_boats_3.png	L	NaN	302.110753117595	1	301.918990170583	302.118990950752
284.138	0.2	387	10	0	35	27	15	5	0	0	0	stim016_stimuli_original_vehicles_planes_4.png	F	0	0	0	302.31899343757	302.519002751098
284.538	0.2	388	10	0	35	28	0	12	0	1	0	stim001_stimuli_original_animals_birds_1.png	T	0	0	0	302.719005481806	302.919009431498
284.938	0.2	389	10	0	35	29	14	1	0	0	0	stim015_stimuli_original_vehicles_planes_3.png	B	0	0	0	303.119019964128	303.319021231844
285.338	0.2	390	10	0	35	30	13	12	0	1	0	stim014_stimuli_original_vehicles_planes_2.png	T	0	0	0	303.519020793028	303.719024986494
285.738	0.2	391	10	0	35	31	1	8	0	0	0	stim002_stimuli_original_animals_birds_2.png	K	0	0	0	303.919036006788	304.119038005942
286.138	0.2	392	10	0	35	32	3	14	0	0	0	stim004_stimuli_original_animals_birds_4.png	V	0	0	0	304.319085353753	304.519077600678
286.538	0.2	393	10	0	35	33	4	3	0	0	0	stim005_stimuli_original_animals_fish_1.png	D	0	0	0	304.719066677964	304.919086962938
286.938	0.2	394	10	0	35	34	7	2	0	0	0	stim008_stimuli_original_animals_fish_4.png	C	0	0	0	305.119077746873	305.319100226159
287.338	0.2	395	10	0	35	35	6	0	0	0	0	stim007_stimuli_original_animals_fish_3.png	A	0	0	0	305.519089303445	305.719103980809
297.322	0.2	396	11	1	42	0	6	6	0	0	0	stim007_stimuli_original_animals_fish_3.png	G	NaN	315.495310813072	0	315.502704334212	315.702711697319
297.722	0.2	397	11	1	42	1	9	9	0	0	0	stim010_stimuli_original_vehicles_boats_2.png	L	0	0	0	315.902714184136	316.102716670954
298.122	0.2	398	11	1	42	2	12	14	0	0	0	stim013_stimuli_original_vehicles_planes_1.png	V	0	0	0	316.302714525489	316.502728471416
298.522	0.2	399	11	1	42	3	11	1	0	0	0	stim012_stimuli_original_vehicles_boats_4.png	B	0	0	0	316.702734127757	316.902722473606
298.922	0.2	400	11	1	42	4	0	3	1	0	0	stim001_stimuli_original_animals_birds_1.png	D	0	0	0	317.102746659541	317.302750609233
299.322	0.2	401	11	1	42	5	2	15	0	0	0	stim003_stimuli_original_animals_birds_3.png	Y	0	0	0	317.502759922761	317.702770455391
299.722	0.2	402	11	1	42	6	0	0	1	0	0	stim001_stimuli_original_animals_birds_1.png	A	0	0	0	317.902766359388	318.102775429026
300.122	0.2	403	11	1	42	7	4	8	0	0	0	stim005_stimuli_original_animals_fish_1.png	K	0	0	0	318.302779622609	318.502781377989
300.522	0.2	404	11	1	42	8	5	7	0	1	0	stim006_stimuli_original_animals_fish_2.png	J	0	0	0	318.702791910619	318.902791471686
300.922	0.2	405	11	1	42	9	1	4	0	0	0	stim002_stimuli_original_animals_birds_2.png	E	0	0	0	319.102797371917	319.302790594054
301.322	0.2	406	11	1	42	10	7	7	0	1	1	stim008_stimuli_original_animals_fish_4.png	J	0	0	0	319.502806977951	319.702814584831
301.722	0.2	407	11	1	42	11	10	2	0	0	0	stim011_stimuli_original_vehicles_boats_3.png	C	0	0	0	319.902822191711	320.102806636714
302.122	0.2	408	11	1	42	12	8	13	0	0	0	stim009_stimuli_original_vehicles_boats_1.png	U	NaN	320.295358550968	1	320.30283155397	320.502817461849
302.522	0.2	409	11	1	42	13	0	11	0	0	0	stim001_stimuli_original_animals_birds_1.png	R	0	0	0	320.702841647668	320.902843646938
302.922	0.2	410	11	1	42	14	13	10	0	0	0	stim014_stimuli_original_vehicles_planes_2.png	Q	0	0	0	321.102837112849	321.302847157815
303.322	0.2	411	11	1	42	15	14	7	0	0	0	stim015_stimuli_original_vehicles_planes_3.png	J	0	0	0	321.503131732228	321.702870904817
303.722	0.2	412	11	1	42	16	3	12	0	0	0	stim004_stimuli_original_animals_birds_4.png	T	0	0	0	321.902872660314	322.102862712811
304.122	0.2	413	11	1	42	17	15	5	0	0	0	stim016_stimuli_original_vehicles_planes_4.png	F	NaN	322.295402924297	0	322.302883241558	322.502874513273
304.522	0.2	414	11	1	42	18	5	15	0	0	0	stim006_stimuli_original_animals_fish_2.png	Y	0	0	0	322.702896992443	322.902896797401
304.922	0.2	415	11	1	42	19	12	3	0	0	0	stim013_stimuli_original_vehicles_planes_1.png	D	0	0	0	323.102904648054	323.302894944442
305.322	0.2	416	11	1	42	20	7	14	0	0	0	stim008_stimuli_original_animals_fish_4.png	V	0	0	0	323.502900844673	323.702921617194
305.722	0.2	417	11	1	42	21	10	13	0	0	0	stim011_stimuli_original_vehicles_boats_3.png	U	0	0	0	323.902929224074	324.102914888063
306.122	0.2	418	11	1	42	22	11	0	0	0	0	stim012_stimuli_original_vehicles_boats_4.png	A	0	0	0	324.302924933028	324.502943267464
306.522	0.2	419	11	1	42	23	13	8	0	0	0	stim014_stimuli_original_vehicles_planes_2.png	K	0	0	0	324.702947948594	324.902950679301
306.922	0.2	420	11	1	42	24	2	10	0	0	0	stim003_stimuli_original_animals_birds_3.png	Q	0	0	0	325.102958529955	325.302944681607
307.322	0.2	421	11	1	42	25	7	7	1	0	0	stim008_stimuli_original_animals_fish_4.png	J	0	0	0	325.502980326535	325.702977205743
307.722	0.2	422	11	1	42	26	4	1	0	0	0	stim005_stimuli_original_animals_fish_1.png	B	0	0	0	325.902978473576	326.102981691831
308.122	0.2	423	11	1	42	27	7	5	1	0	0	stim008_stimuli_original_animals_fish_4.png	F	NaN	326.494765899028	0	326.302993443445	326.502978375996
308.522	0.2	424	11	1	42	28	8	4	0	0	0	stim009_stimuli_original_vehicles_boats_1.png	E	0	0	0	326.703003781033	326.903429033351
308.922	0.2	425	11	1	42	29	0	0	0	1	0	stim001_stimuli_original_animals_birds_1.png	A	0	0	0	327.102979985182	327.302984910086
309.322	0.2	426	11	1	42	30	15	2	0	0	0	stim016_stimuli_original_vehicles_planes_4.png	C	0	0	0	327.503030063584	327.703026699019
309.722	0.2	427	11	1	42	31	3	0	0	1	1	stim004_stimuli_original_animals_birds_4.png	A	0	0	0	327.903026747867	328.103035573731
310.122	0.2	428	11	1	42	32	1	11	0	0	0	stim002_stimuli_original_animals_birds_2.png	R	0	0	0	328.303027820541	328.503032989334
310.522	0.2	429	11	1	42	33	14	12	0	0	0	stim015_stimuli_original_vehicles_planes_3.png	T	0	0	0	328.703058394254	328.903065513587
310.922	0.2	430	11	1	42	34	9	9	0	0	0	stim010_stimuli_original_vehicles_boats_2.png	L	0	0	0	329.103048983263	329.30305171397
311.322	0.2	431	11	1	42	35	6	6	0	0	0	stim007_stimuli_original_animals_fish_3.png	G	0	0	0	329.503075412242	329.703068146715
314.089	0.2	432	12	0	40	0	10	7	0	0	0	stim011_stimuli_original_vehicles_boats_3.png	J	0	0	0	332.269814636558	332.469820292899
314.489	0.2	433	12	0	40	1	0	2	0	0	0	stim001_stimuli_original_animals_birds_1.png	C	0	0	0	332.6698081512	332.869835018995
314.889	0.2	434	12	0	40	2	8	10	0	0	0	stim009_stimuli_original_vehicles_boats_1.png	Q	0	0	0	333.069836530602	333.269840480294
315.289	0.2	435	12	0	40	3	1	11	0	0	0	stim002_stimuli_original_animals_birds_2.png	R	0	0	0	333.469847111963	333.669852036866
315.689	0.2	436	12	0	40	4	6	9	0	0	0	stim007_stimuli_original_animals_fish_3.png	L	0	0	0	333.869858668535	334.070339265745
316.089	0.2	437	12	0	40	5	7	8	1	0	0	stim008_stimuli_original_animals_fish_4.png	K	0	0	0	334.269860228873	334.469874662464
316.489	0.2	438	12	0	40	6	9	5	0	0	0	stim010_stimuli_original_vehicles_boats_2.png	F	0	0	0	334.669880562578	334.869864519918
316.889	0.2	439	12	0	40	7	7	4	1	0	1	stim008_stimuli_original_animals_fish_4.png	E	0	0	0	335.069887974416	335.269894118421
317.289	0.2	440	12	0	40	8	5	11	0	1	0	stim006_stimuli_original_animals_fish_2.png	R	0	0	0	335.469876369112	335.669911038829
317.689	0.2	441	12	0	40	9	14	13	0	0	0	stim015_stimuli_original_vehicles_planes_3.png	U	0	0	0	335.869894508505	336.069896264002
318.089	0.2	442	12	0	40	10	4	11	0	1	0	stim005_stimuli_original_animals_fish_1.png	R	0	0	0	336.269905821304	336.469923424302
318.489	0.2	443	12	0	40	11	12	6	0	0	0	stim013_stimuli_original_vehicles_planes_1.png	G	0	0	0	336.669923473033	336.869947658968
318.889	0.2	444	12	0	40	12	3	0	0	0	0	stim004_stimuli_original_animals_birds_4.png	A	0	0	0	337.069924789597	337.26996750501
319.289	0.2	445	12	0	40	13	2	15	0	0	0	stim003_stimuli_original_animals_birds_3.png	Y	0	0	0	337.469932932872	337.669962482643
319.689	0.2	446	12	0	40	14	11	12	0	0	0	stim012_stimuli_original_vehicles_boats_4.png	T	0	0	0	337.869966432336	338.069974770537
320.089	0.2	447	12	0	40	15	7	3	0	0	0	stim008_stimuli_original_animals_fish_4.png	D	0	0	0	338.26997335651	338.469982426148
320.489	0.2	448	12	0	40	16	13	1	0	0	0	stim014_stimuli_original_vehicles_planes_2.png	B	0	0	0	338.669983937871	338.869979597977
320.889	0.2	449	12	0	40	17	15	14	0	0	0	stim016_stimuli_original_vehicles_planes_4.png	V	NaN	339.062560038059	0	339.069997932529	339.269998468808
321.289	0.2	450	12	0	40	18	14	15	0	0	0	stim015_stimuli_original_vehicles_planes_3.png	Y	0	0	0	339.470008513774	339.670007831184
321.689	0.2	451	12	0	40	19	1	13	0	0	0	stim002_stimuli_original_animals_birds_2.png	U	0	0	0	339.870016413275	340.070025482913
322.089	0.2	452	12	0	40	20	3	7	0	0	0	stim004_stimuli_original_animals_birds_4.png	J	0	0	0	340.270025531761	340.47003191954
322.489	0.2	453	12	0	40	21	12	11	0	0	0	stim013_stimuli_original_vehicles_planes_1.png	R	0	0	0	340.670037088334	340.870042744675
322.889	0.2	454	12	0	40	22	15	2	0	0	0	stim016_stimuli_original_vehicles_planes_4.png	C	0	0	0	341.070033041062	341.270052594598
323.289	0.2	455	12	0	40	23	0	3	0	0	0	stim001_stimuli_original_animals_birds_1.png	D	0	0	0	341.470058250939	341.670061225421
323.689	0.2	456	12	0	40	24	6	12	0	0	0	stim007_stimuli_original_animals_fish_3.png	T	0	0	0	341.870069319848	342.070058641024
324.089	0.2	457	12	0	40	25	11	4	1	0	0	stim012_stimuli_original_vehicles_boats_4.png	E	0	0	0	342.270078438334	342.470070929034
324.489	0.2	458	12	0	40	26	13	14	0	0	0	stim014_stimuli_original_vehicles_planes_2.png	V	0	0	0	342.670092676883	342.870085411356
324.889	0.2	459	12	0	40	27	11	5	1	0	1	stim012_stimuli_original_vehicles_boats_4.png	F	0	0	0	343.070093018119	343.270103550749
325.289	0.2	460	12	0	40	28	4	7	0	1	0	stim005_stimuli_original_animals_fish_1.png	J	0	0	0	343.470104087144	343.670109012048
325.689	0.2	461	12	0	40	29	5	9	0	0	0	stim006_stimuli_original_animals_fish_2.png	L	0	0	0	343.870115643716	344.07011788676
326.089	0.2	462	12	0	40	30	8	7	0	1	0	stim009_stimuli_original_vehicles_boats_1.png	J	0	0	0	344.270124762203	344.470126517583
326.49	0.2	463	12	0	40	31	9	6	0	0	0	stim010_stimuli_original_vehicles_boats_2.png	G	0	0	0	344.670572006144	344.870157822734
326.889	0.2	464	12	0	40	32	11	1	0	0	0	stim012_stimuli_original_vehicles_boats_4.png	B	0	0	0	345.07015372673	345.270157432649
327.289	0.2	465	12	0	40	33	10	8	0	0	0	stim011_stimuli_original_vehicles_boats_3.png	K	0	0	0	345.47016308899	345.670151191065
327.689	0.2	466	12	0	40	34	2	0	0	0	0	stim003_stimuli_original_animals_birds_3.png	A	0	0	0	345.870179765509	346.0701620162
328.089	0.2	467	12	0	40	35	7	10	0	0	0	stim008_stimuli_original_animals_fish_4.png	Q	0	0	0	346.270169866853	346.470191370929
330.989	0.2	468	13	1	27	0	2	7	0	0	0	stim003_stimuli_original_animals_birds_3.png	J	0	0	0	349.170260905288	349.370265342644
331.389	0.2	469	13	1	27	1	8	0	0	0	0	stim009_stimuli_original_vehicles_boats_1.png	A	0	0	0	349.570272705751	349.770272510708
331.789	0.2	470	13	1	27	2	3	10	0	0	0	stim004_stimuli_original_animals_birds_4.png	Q	0	0	0	349.970280117472	350.170283091953
332.189	0.2	471	13	1	27	3	1	3	0	0	0	stim002_stimuli_original_animals_birds_2.png	D	0	0	0	350.370294599794	350.570297574275
332.589	0.2	472	13	1	27	4	6	6	0	0	0	stim007_stimuli_original_animals_fish_3.png	G	0	0	0	350.770304449718	350.970304986113
332.989	0.2	473	13	1	27	5	5	9	0	0	0	stim006_stimuli_original_animals_fish_2.png	L	0	0	0	351.170311861555	351.370317517896
333.389	0.2	474	13	1	27	6	14	4	0	1	0	stim015_stimuli_original_vehicles_planes_3.png	E	0	0	0	351.570321223815	351.770319078234
333.79	0.2	475	13	1	27	7	11	12	0	0	0	stim012_stimuli_original_vehicles_boats_4.png	T	0	0	0	351.970782364951	352.17033965583
334.189	0.2	476	13	1	27	8	15	4	0	1	1	stim016_stimuli_original_vehicles_planes_4.png	E	0	0	0	352.370345068397	352.570344629465
334.589	0.2	477	13	1	27	9	12	11	0	0	0	stim013_stimuli_original_vehicles_planes_1.png	R	NaN	352.962112013833	1	352.770349798258	352.970354723162
334.989	0.2	478	13	1	27	10	11	2	1	0	0	stim012_stimuli_original_vehicles_boats_4.png	C	0	0	0	353.170361111057	353.370365792187
335.389	0.2	479	13	1	27	11	13	8	0	0	0	stim014_stimuli_original_vehicles_planes_2.png	K	0	0	0	353.570375593263	353.77037174115
335.79	0.2	480	13	1	27	12	11	4	1	0	0	stim012_stimuli_original_vehicles_boats_4.png	E	0	0	0	353.970380810788	354.170385735808
336.19	0.2	481	13	1	27	13	10	1	0	0	0	stim011_stimuli_original_vehicles_boats_3.png	B	0	0	0	354.370393098798	354.570399730466
336.59	0.2	482	13	1	27	14	4	13	0	0	0	stim005_stimuli_original_animals_fish_1.png	U	0	0	0	354.77040465537	354.970404947991
336.99	0.2	483	13	1	27	15	9	14	0	0	0	stim010_stimuli_original_vehicles_boats_2.png	V	0	0	0	355.170411823434	355.370429670205
337.39	0.2	484	13	1	27	16	7	15	0	0	0	stim008_stimuli_original_animals_fish_4.png	Y	0	0	0	355.57043581421	355.77041977155
337.79	0.2	485	13	1	27	17	0	5	0	0	0	stim001_stimuli_original_animals_birds_1.png	F	0	0	0	355.97043591179	356.170453758561
338.19	0.2	486	13	1	27	18	5	0	0	0	0	stim006_stimuli_original_animals_fish_2.png	A	0	0	0	356.37045770837	356.570453612367
338.59	0.2	487	13	1	27	19	15	7	0	0	0	stim016_stimuli_original_vehicles_planes_4.png	J	0	0	0	356.770470483927	356.970463949838
338.99	0.2	488	13	1	27	20	14	9	0	0	0	stim015_stimuli_original_vehicles_planes_3.png	L	0	0	0	357.17062857002	357.370485990192
339.39	0.2	489	13	1	27	21	13	4	0	0	0	stim014_stimuli_original_vehicles_planes_2.png	E	0	0	0	357.570484819938	357.770485112444
339.79	0.2	490	13	1	27	22	1	10	0	0	0	stim002_stimuli_original_animals_birds_2.png	Q	0	0	0	357.970491744112	358.170495937578
340.19	0.2	491	13	1	27	23	4	11	0	1	0	stim005_stimuli_original_animals_fish_1.png	R	0	0	0	358.370504032122	358.57051334565
340.59	0.2	492	13	1	27	24	8	13	0	0	0	stim009_stimuli_original_vehicles_boats_1.png	U	0	0	0	358.770511687733	358.970516612637
340.99	0.2	493	13	1	27	25	2	11	0	1	1	stim003_stimuli_original_animals_birds_3.png	R	0	0	0	359.170527145267	359.370534508256
341.39	0.2	494	13	1	27	26	11	12	0	0	0	stim012_stimuli_original_vehicles_boats_4.png	T	0	0	0	359.570536263753	359.770529485773
341.79	0.2	495	13	1	27	27	4	15	1	0	0	stim005_stimuli_original_animals_fish_1.png	Y	NaN	359.963097003987	1	359.970524658333	360.170542017673
342.19	0.2	496	13	1	27	28	12	11	0	0	0	stim013_stimuli_original_vehicles_planes_1.png	R	0	0	0	360.37056815403	360.570552355144
342.59	0.2	497	13	1	27	29	4	14	1	0	0	stim005_stimuli_original_animals_fish_1.png	V	0	0	0	360.770586537197	360.970578540233
342.99	0.2	498	13	1	27	30	9	5	0	0	0	stim010_stimuli_original_vehicles_boats_2.png	F	NaN	361.163116557524	1	361.170575663331	361.370598142501
343.39	0.2	499	13	1	27	31	6	6	0	0	0	stim007_stimuli_original_animals_fish_3.png	G	0	0	0	361.570599897997	361.770578247728
343.79	0.2	500	13	1	27	32	3	1	0	0	0	stim004_stimuli_original_animals_birds_4.png	B	0	0	0	361.970581465983	362.170585171902
344.19	0.2	501	13	1	27	33	10	3	0	0	0	stim011_stimuli_original_vehicles_boats_3.png	D	0	0	0	362.370585952071	362.571093368228
344.59	0.2	502	13	1	27	34	0	8	0	0	0	stim001_stimuli_original_animals_birds_1.png	K	0	0	0	362.770610674401	362.97061121068
344.99	0.2	503	13	1	27	35	7	2	0	0	0	stim008_stimuli_original_animals_fish_4.png	C	0	0	0	363.170638322365	363.370667628245
349.573	0.2	504	14	0	36	0	6	13	0	0	0	stim007_stimuli_original_animals_fish_3.png	U	0	0	0	367.75407844421	367.954097753973
349.973	0.2	505	14	0	36	1	9	11	0	0	0	stim010_stimuli_original_vehicles_boats_2.png	R	0	0	0	368.154090000782	368.354110285756
350.373	0.2	506	14	0	36	2	12	9	0	0	0	stim013_stimuli_original_vehicles_planes_1.png	L	0	0	0	368.554099119268	368.754117697477
350.773	0.2	507	14	0	36	3	2	6	0	0	0	stim003_stimuli_original_animals_birds_3.png	G	0	0	0	368.954127254896	369.154131448362
351.173	0.2	508	14	0	36	4	8	0	1	0	0	stim009_stimuli_original_vehicles_boats_1.png	A	0	0	0	369.354136129492	369.554139835411
351.573	0.2	509	14	0	36	5	7	3	0	0	0	stim008_stimuli_original_animals_fish_4.png	D	0	0	0	369.754146954627	369.95413408149
351.973	0.2	510	14	0	36	6	8	5	1	1	1	stim009_stimuli_original_vehicles_boats_1.png	F	0	0	0	370.15414168837	370.354168556165
352.373	0.2	511	14	0	36	7	4	10	0	0	0	stim005_stimuli_original_animals_fish_1.png	Q	0	0	0	370.554172505857	370.754171823268
352.773	0.2	512	14	0	36	8	13	5	0	1	0	stim014_stimuli_original_vehicles_planes_2.png	F	0	0	0	370.954177479609	371.154185574036
353.174	0.2	513	14	0	36	9	10	7	0	0	0	stim011_stimuli_original_vehicles_boats_3.png	J	0	0	0	371.354695184506	371.554203957319
353.573	0.2	514	14	0	36	10	8	12	0	0	0	stim009_stimuli_original_vehicles_boats_1.png	T	0	0	0	371.754203762277	371.95420210436
353.973	0.2	515	14	0	36	11	0	1	0	0	0	stim001_stimuli_original_animals_birds_1.png	B	0	0	0	372.154195814044	372.354199519963
354.373	0.2	516	14	0	36	12	14	5	0	0	0	stim015_stimuli_original_vehicles_planes_3.png	F	0	0	0	372.554222243023	372.754227899364
354.773	0.2	517	14	0	36	13	15	8	0	0	0	stim016_stimuli_original_vehicles_planes_4.png	K	0	0	0	372.954223803361	373.154226534069
355.173	0.2	518	14	0	36	14	3	2	0	0	0	stim004_stimuli_original_animals_birds_4.png	C	0	0	0	373.354236091371	373.554238822078
355.573	0.2	519	14	0	36	15	11	15	0	0	0	stim012_stimuli_original_vehicles_boats_4.png	Y	0	0	0	373.754244478419	373.954265007167
355.973	0.2	520	14	0	36	16	5	14	0	0	0	stim006_stimuli_original_animals_fish_2.png	V	0	0	0	374.154255059781	374.354257790372
356.373	0.2	521	14	0	36	17	1	4	0	0	0	stim002_stimuli_original_animals_birds_2.png	E	0	0	0	374.554264665814	374.754260082263
356.773	0.2	522	14	0	36	18	4	1	0	0	0	stim005_stimuli_original_animals_fish_1.png	B	0	0	0	374.954247940565	375.154252134031
357.173	0.2	523	14	0	36	19	14	5	0	0	0	stim015_stimuli_original_vehicles_planes_3.png	F	0	0	0	375.354296312318	375.554302456323
357.573	0.2	524	14	0	36	20	15	11	0	0	0	stim016_stimuli_original_vehicles_planes_4.png	R	0	0	0	375.754305918468	375.954293289105
357.973	0.2	525	14	0	36	21	2	3	0	0	0	stim003_stimuli_original_animals_birds_3.png	D	0	0	0	376.154320888338	376.354319961858
358.373	0.2	526	14	0	36	22	8	15	0	0	0	stim009_stimuli_original_vehicles_boats_1.png	Y	0	0	0	376.554328543949	376.754484143108
358.773	0.2	527	14	0	36	23	5	14	0	0	0	stim006_stimuli_original_animals_fish_2.png	V	0	0	0	376.954302310012	377.154316255939
359.173	0.2	528	14	0	36	24	1	0	0	0	0	stim002_stimuli_original_animals_birds_2.png	A	0	0	0	377.354313379037	377.554334395332
359.573	0.2	529	14	0	36	25	12	8	0	0	0	stim013_stimuli_original_vehicles_planes_1.png	K	0	0	0	377.754340295563	377.954348389991
359.973	0.2	530	14	0	36	26	7	10	0	0	0	stim008_stimuli_original_animals_fish_4.png	Q	0	0	0	378.154354777769	378.354373599868
360.373	0.2	531	14	0	36	27	5	13	1	0	0	stim006_stimuli_original_animals_fish_2.png	U	0	0	0	378.554364140145	378.754385644104
360.773	0.2	532	14	0	36	28	10	4	0	0	0	stim011_stimuli_original_vehicles_boats_3.png	E	NaN	378.946891478496	0	378.954395201406	379.15437964641
361.173	0.2	533	14	0	36	29	5	8	1	1	1	stim006_stimuli_original_animals_fish_2.png	K	0	0	0	379.354390910361	379.554405100062
361.573	0.2	534	14	0	36	30	3	7	0	0	0	stim004_stimuli_original_animals_birds_4.png	J	0	0	0	379.754398078425	379.954425433767
361.973	0.2	535	14	0	36	31	0	8	0	1	0	stim001_stimuli_original_animals_birds_1.png	K	0	0	0	380.154405734036	380.354426506558
362.373	0.2	536	14	0	36	32	6	2	0	0	0	stim007_stimuli_original_animals_fish_3.png	C	NaN	380.54698987992	1	380.554434600985	380.754439282115
362.773	0.2	537	14	0	36	33	9	12	0	0	0	stim010_stimuli_original_vehicles_boats_2.png	T	0	0	0	380.954414706212	381.154447669163
363.173	0.2	538	14	0	36	34	11	9	0	0	0	stim012_stimuli_original_vehicles_boats_4.png	L	0	0	0	381.354457714129	381.554461663822
363.573	0.2	539	14	0	36	35	13	6	0	0	0	stim014_stimuli_original_vehicles_planes_2.png	G	0	0	0	381.754465125967	381.954473708058
366.957	0.2	540	15	1	46	0	14	12	0	0	0	stim015_stimuli_original_vehicles_planes_3.png	T	0	0	0	385.1378900829	385.337891594507
367.357	0.2	541	15	1	46	1	9	3	0	0	0	stim010_stimuli_original_vehicles_boats_2.png	D	0	0	0	385.537884085206	385.737902907305
367.757	0.2	542	15	1	46	2	8	4	0	0	0	stim009_stimuli_original_vehicles_boats_1.png	E	0	0	0	385.93789369124	386.137897640932
368.157	0.2	543	15	1	46	3	15	10	0	0	0	stim016_stimuli_original_vehicles_planes_4.png	Q	0	0	0	386.337904028827	386.537871163222
368.557	0.2	544	15	1	46	4	0	8	0	0	0	stim001_stimuli_original_animals_birds_1.png	K	0	0	0	386.737937528174	386.937936357921
368.957	0.2	545	15	1	46	5	3	9	1	0	0	stim004_stimuli_original_animals_birds_4.png	L	0	0	0	387.137942014262	387.337931823102
369.357	0.2	546	15	1	46	6	11	13	0	0	0	stim012_stimuli_original_vehicles_boats_4.png	U	0	0	0	387.537930408958	387.737936796737
369.757	0.2	547	15	1	46	7	3	15	1	0	0	stim004_stimuli_original_animals_birds_4.png	Y	0	0	0	387.93796561507	388.138031492359
370.157	0.2	548	15	1	46	8	13	2	0	1	0	stim014_stimuli_original_vehicles_planes_2.png	C	0	0	0	388.337960104924	388.537980633671
370.557	0.2	549	15	1	46	9	7	7	0	0	0	stim008_stimuli_original_animals_fish_4.png	J	NaN	388.929746555164	0	388.737983608153	388.937987801735
370.957	0.2	550	15	1	46	10	1	2	0	1	1	stim002_stimuli_original_animals_birds_2.png	C	0	0	0	389.137981755193	389.337998383096
371.357	0.2	551	15	1	46	11	3	0	0	0	0	stim004_stimuli_original_animals_birds_4.png	A	0	0	0	389.538009403273	389.737986046239
371.757	0.2	552	15	1	46	12	12	6	0	0	0	stim013_stimuli_original_vehicles_planes_1.png	G	0	0	0	389.938002674142	390.137993458076
372.157	0.2	553	15	1	46	13	2	5	0	0	0	stim003_stimuli_original_animals_birds_3.png	F	0	0	0	390.337997895433	390.538030614611
372.557	0.2	554	15	1	46	14	4	14	0	0	0	stim005_stimuli_original_animals_fish_1.png	V	0	0	0	390.738041391014	390.938042171183
372.957	0.2	555	15	1	46	15	5	2	0	0	0	stim006_stimuli_original_animals_fish_2.png	C	0	0	0	391.138046852313	391.338059579255
373.357	0.2	556	15	1	46	16	10	11	0	0	0	stim011_stimuli_original_vehicles_boats_3.png	R	0	0	0	391.538044024142	391.738047730061
373.757	0.2	557	15	1	46	17	6	1	0	0	0	stim007_stimuli_original_animals_fish_3.png	B	0	0	0	391.938070696895	392.138073183829
374.157	0.2	558	15	1	46	18	1	6	0	0	0	stim002_stimuli_original_animals_birds_2.png	G	0	0	0	392.338083472569	392.538082546089
374.557	0.2	559	15	1	46	19	11	10	0	0	0	stim012_stimuli_original_vehicles_boats_4.png	Q	0	0	0	392.738092591055	392.938097028295
374.957	0.2	560	15	1	46	20	2	5	0	0	0	stim003_stimuli_original_animals_birds_3.png	F	0	0	0	393.138087324682	393.33810517157
375.357	0.2	561	15	1	46	21	14	4	0	0	0	stim015_stimuli_original_vehicles_planes_3.png	E	0	0	0	393.538108146051	393.738121604314
375.757	0.2	562	15	1	46	22	5	2	0	0	0	stim006_stimuli_original_animals_fish_2.png	C	0	0	0	393.938117508311	394.138122189441
376.157	0.2	563	15	1	46	23	6	12	0	0	0	stim007_stimuli_original_animals_fish_3.png	T	0	0	0	394.338124920148	394.538130088942
376.557	0.2	564	15	1	46	24	0	3	0	0	0	stim001_stimuli_original_animals_birds_1.png	D	0	0	0	394.738135745283	394.938140914077
376.957	0.2	565	15	1	46	25	2	1	1	0	0	stim003_stimuli_original_animals_birds_3.png	B	0	0	0	395.138153397129	395.338150032563
377.357	0.2	566	15	1	46	26	7	7	0	0	0	stim008_stimuli_original_animals_fish_4.png	J	0	0	0	395.538158614654	395.73816280812
377.757	0.2	567	15	1	46	27	2	13	1	0	0	stim003_stimuli_original_animals_birds_3.png	U	0	0	0	395.938168952125	396.138172658044
378.157	0.2	568	15	1	46	28	15	3	0	1	0	stim016_stimuli_original_vehicles_planes_4.png	D	0	0	0	396.338178558159	396.538205913617
378.557	0.2	569	15	1	46	29	13	11	0	0	0	stim014_stimuli_original_vehicles_planes_2.png	R	0	0	0	396.738188164309	396.938169439789
378.957	0.2	570	15	1	46	30	9	3	0	1	1	stim010_stimuli_original_vehicles_boats_2.png	D	0	0	0	397.138207278913	397.338207815308
379.357	0.2	571	15	1	46	31	8	0	0	0	0	stim009_stimuli_original_vehicles_boats_1.png	A	0	0	0	397.538237852626	397.738222541404
379.757	0.2	572	15	1	46	32	10	15	0	0	0	stim011_stimuli_original_vehicles_boats_3.png	Y	0	0	0	397.938227222534	398.138217762811
380.157	0.2	573	15	1	46	33	4	8	0	0	0	stim005_stimuli_original_animals_fish_1.png	K	NaN	398.338404325768	1	398.338237560121	398.538244679337
380.557	0.2	574	15	1	46	34	3	9	0	0	0	stim004_stimuli_original_animals_birds_4.png	L	0	0	0	398.738233756623	398.938272327301
380.957	0.2	575	15	1	46	35	12	14	0	0	0	stim013_stimuli_original_vehicles_planes_1.png	V	0	0	0	399.138263355126	399.338248531567
385.041	0.2	576	16	0	26	0	6	15	0	0	0	stim007_stimuli_original_animals_fish_3.png	Y	0	0	0	403.22170250176	403.421705232468
385.441	0.2	577	16	0	26	1	8	13	0	0	0	stim009_stimuli_original_vehicles_boats_1.png	U	0	0	0	403.621717227856	403.821700941422
385.841	0.2	578	16	0	26	2	10	3	0	0	0	stim011_stimuli_original_vehicles_boats_3.png	D	0	0	0	404.021709035849	404.221709816018
386.241	0.2	579	16	0	26	3	0	9	0	0	0	stim001_stimuli_original_animals_birds_1.png	L	0	0	0	404.421736440039	404.62172137259
386.641	0.2	580	16	0	26	4	3	2	0	0	0	stim004_stimuli_original_animals_birds_4.png	C	0	0	0	404.821747508948	405.021730003413
387.041	0.2	581	16	0	26	5	2	8	0	0	0	stim003_stimuli_original_animals_birds_3.png	K	0	0	0	405.2217537018	405.421762040001
387.441	0.2	582	16	0	26	6	15	1	0	0	0	stim016_stimuli_original_vehicles_planes_4.png	B	0	0	0	405.621763795498	405.821753604221
387.841	0.2	583	16	0	26	7	9	12	0	1	0	stim010_stimuli_original_vehicles_boats_2.png	T	0	0	0	406.021778765367	406.221765404567
388.241	0.2	584	16	0	26	8	7	4	0	0	0	stim008_stimuli_original_animals_fish_4.png	E	0	0	0	406.42179032194	406.621791833546
388.641	0.2	585	16	0	26	9	5	12	0	1	0	stim006_stimuli_original_animals_fish_2.png	T	0	0	0	406.82179675845	407.021799732931
389.041	0.2	586	16	0	26	10	3	14	1	0	0	stim004_stimuli_original_animals_birds_4.png	V	0	0	0	407.221790760756	407.421831038082
389.441	0.2	587	16	0	26	11	12	6	0	0	0	stim013_stimuli_original_vehicles_planes_1.png	G	0	0	0	407.621820359258	407.821824065177
389.841	0.2	588	16	0	26	12	3	7	1	0	1	stim004_stimuli_original_animals_birds_4.png	J	0	0	0	408.021828746307	408.22182148078
390.241	0.2	589	16	0	26	13	14	11	0	0	0	stim015_stimuli_original_vehicles_planes_3.png	R	0	0	0	408.421845179051	408.62184595922
390.641	0.2	590	16	0	26	14	4	0	0	0	0	stim005_stimuli_original_animals_fish_1.png	A	0	0	0	408.822362152627	409.021839961526
391.041	0.2	591	16	0	26	15	13	5	0	0	0	stim014_stimuli_original_vehicles_planes_2.png	F	0	0	0	409.221823187429	409.421830062871
391.441	0.2	592	16	0	26	16	1	10	0	0	0	stim002_stimuli_original_animals_birds_2.png	Q	0	0	0	409.621847422095	409.821876240312
391.841	0.2	593	16	0	26	17	11	12	0	0	0	stim012_stimuli_original_vehicles_boats_4.png	T	0	0	0	410.021883603418	410.221884871251
392.241	0.2	594	16	0	26	18	12	11	0	0	0	stim013_stimuli_original_vehicles_planes_1.png	R	0	0	0	410.421892721904	410.621897403034
392.641	0.2	595	16	0	26	19	10	1	0	0	0	stim011_stimuli_original_vehicles_boats_3.png	B	0	0	0	410.821905741352	411.021906765294
393.041	0.2	596	16	0	26	20	5	13	0	0	0	stim006_stimuli_original_animals_fish_2.png	U	0	0	0	411.221903644502	411.421919784741
393.441	0.2	597	16	0	26	21	0	4	0	0	0	stim001_stimuli_original_animals_birds_1.png	E	0	0	0	411.62189984112	411.821926952689
393.841	0.2	598	16	0	26	22	11	14	0	0	0	stim012_stimuli_original_vehicles_boats_4.png	V	0	0	0	412.02193846053	412.221921930206
394.241	0.2	599	16	0	26	23	7	3	0	1	0	stim008_stimuli_original_animals_fish_4.png	D	0	0	0	412.421944409492	412.621951284935
394.641	0.2	600	16	0	26	24	6	12	0	0	0	stim007_stimuli_original_animals_fish_3.png	T	0	0	0	412.821977177518	413.021960890968
395.041	0.2	601	16	0	26	25	14	3	0	1	0	stim015_stimuli_original_vehicles_planes_3.png	D	0	0	0	413.221967766411	413.421965377056
395.441	0.2	602	16	0	26	26	12	5	1	0	0	stim013_stimuli_original_vehicles_planes_1.png	F	0	0	0	413.621974446811	413.821974251769
395.841	0.2	603	16	0	26	27	4	7	0	0	0	stim005_stimuli_original_animals_fish_1.png	J	0	0	0	414.021984052844	414.222507560509
396.241	0.2	604	16	0	26	28	12	9	1	0	1	stim013_stimuli_original_vehicles_planes_1.png	L	0	0	0	414.422002679901	414.621990782092
396.641	0.2	605	16	0	26	29	1	15	0	0	0	stim002_stimuli_original_animals_birds_2.png	Y	0	0	0	414.822012529825	415.022013797658
397.041	0.2	606	16	0	26	30	8	2	0	0	0	stim009_stimuli_original_vehicles_boats_1.png	C	0	0	0	415.222021404537	415.422029498965
397.441	0.2	607	16	0	26	31	2	3	0	0	0	stim003_stimuli_original_animals_birds_3.png	D	NaN	415.614612133359	1	415.622032229672	415.822034472716
397.841	0.2	608	16	0	26	32	9	0	0	0	0	stim010_stimuli_original_vehicles_boats_2.png	A	0	0	0	416.022024769103	416.222021404537
398.241	0.2	609	16	0	26	33	3	10	0	0	0	stim004_stimuli_original_animals_birds_4.png	Q	0	0	0	416.422028767527	416.622031254461
398.641	0.2	610	16	0	26	34	13	8	0	0	0	stim014_stimuli_original_vehicles_planes_2.png	K	0	0	0	416.822060804116	417.02204890619
399.041	0.2	611	16	0	26	35	15	6	0	0	0	stim016_stimuli_original_vehicles_planes_4.png	G	0	0	0	417.222072360688	417.422076554154
401.741	0.2	612	17	1	39	0	0	3	0	0	0	stim001_stimuli_original_animals_birds_1.png	D	0	0	0	419.922110199928	420.122120001004
402.141	0.2	613	17	1	39	1	9	5	0	0	0	stim010_stimuli_original_vehicles_boats_2.png	F	0	0	0	420.322136872681	420.522154475679
402.541	0.2	614	17	1	39	2	4	4	0	0	0	stim005_stimuli_original_animals_fish_1.png	E	0	0	0	420.722161594895	420.922151891282
402.941	0.2	615	17	1	39	3	15	12	0	0	0	stim016_stimuli_original_vehicles_planes_4.png	T	0	0	0	421.122175833443	421.32266545156
403.341	0.2	616	17	1	39	4	14	1	0	0	0	stim015_stimuli_original_vehicles_planes_3.png	B	0	0	0	421.522204700392	421.72219060827
403.741	0.2	617	17	1	39	5	2	14	0	0	0	stim003_stimuli_original_animals_birds_3.png	V	0	0	0	421.922178466571	422.122182416264
404.141	0.2	618	17	1	39	6	13	7	0	0	0	stim014_stimuli_original_vehicles_planes_2.png	J	0	0	0	422.322202945012	422.522210551891
404.541	0.2	619	17	1	39	7	8	10	0	0	0	stim009_stimuli_original_vehicles_boats_1.png	Q	0	0	0	422.722215476795	422.922217476065
404.941	0.2	620	17	1	39	8	11	5	0	1	0	stim012_stimuli_original_vehicles_boats_4.png	F	0	0	0	423.122224595281	423.322226838325
405.341	0.2	621	17	1	39	9	10	2	0	0	0	stim011_stimuli_original_vehicles_boats_3.png	C	0	0	0	423.52224151569	423.722238882561
405.741	0.2	622	17	1	39	10	8	5	1	1	1	stim009_stimuli_original_vehicles_boats_1.png	F	0	0	0	423.922264043707	424.122250439133
406.141	0.2	623	17	1	39	11	6	9	0	0	0	stim007_stimuli_original_animals_fish_3.png	L	0	0	0	424.322240247857	424.522244197549
406.541	0.2	624	17	1	39	12	8	6	1	0	0	stim009_stimuli_original_vehicles_boats_1.png	G	NaN	424.714836340514	1	424.722250585328	424.922253559809
406.941	0.2	625	17	1	39	13	1	11	0	0	0	stim002_stimuli_original_animals_birds_2.png	R	0	0	0	425.122278233408	425.322289741132
407.341	0.2	626	17	1	39	14	5	8	0	0	0	stim006_stimuli_original_animals_fish_2.png	K	0	0	0	425.522291008965	425.722274966305
407.741	0.2	627	17	1	39	15	7	0	0	0	0	stim008_stimuli_original_animals_fish_4.png	A	0	0	0	425.922297689365	426.122287985752
408.141	0.2	628	17	1	39	16	12	13	0	0	0	stim013_stimuli_original_vehicles_planes_1.png	U	0	0	0	426.322311684024	426.522321485099
408.541	0.2	629	17	1	39	17	3	15	0	0	0	stim004_stimuli_original_animals_birds_4.png	Y	0	0	0	426.722310806275	426.922308660811
408.941	0.2	630	17	1	39	18	15	3	0	0	0	stim016_stimuli_original_vehicles_planes_4.png	D	0	0	0	427.122313098167	427.322320948821
409.341	0.2	631	17	1	39	19	13	12	0	0	0	stim014_stimuli_original_vehicles_planes_2.png	T	0	0	0	427.522317584255	427.722346646246
409.741	0.2	632	17	1	39	20	0	7	0	0	0	stim001_stimuli_original_animals_birds_1.png	J	0	0	0	427.922343769344	428.122338698129
410.141	0.2	633	17	1	39	21	8	5	0	0	0	stim009_stimuli_original_vehicles_boats_1.png	F	0	0	0	428.322366297361	428.522365858429
410.541	0.2	634	17	1	39	22	11	1	0	0	0	stim012_stimuli_original_vehicles_boats_4.png	B	0	0	0	428.722371514887	428.922375464579
410.941	0.2	635	17	1	39	23	6	8	0	1	0	stim007_stimuli_original_animals_fish_3.png	K	NaN	429.114997352241	0	429.122368442826	429.322386289714
411.341	0.2	636	17	1	39	24	9	6	0	0	0	stim010_stimuli_original_vehicles_boats_2.png	G	0	0	0	429.522395115579	429.722396871075
411.741	0.2	637	17	1	39	25	5	8	1	1	1	stim006_stimuli_original_animals_fish_2.png	K	0	0	0	429.922374245478	430.122377463849
412.141	0.2	638	17	1	39	26	2	10	0	0	0	stim003_stimuli_original_animals_birds_3.png	Q	0	0	0	430.322398724034	430.522429005126
412.541	0.2	639	17	1	39	27	5	11	1	0	0	stim006_stimuli_original_animals_fish_2.png	R	0	0	0	430.722410768154	430.922428615042
412.941	0.2	640	17	1	39	28	10	8	0	0	0	stim011_stimuli_original_vehicles_boats_3.png	K	0	0	0	431.122436709469	431.322443341138
413.341	0.2	641	17	1	39	29	7	13	0	0	0	stim008_stimuli_original_animals_fish_4.png	U	0	0	0	431.522448509815	431.722453678609
413.742	0.2	642	17	1	39	30	14	2	0	0	0	stim015_stimuli_original_vehicles_planes_3.png	C	0	0	0	431.922925011022	432.122438172344
414.141	0.2	643	17	1	39	31	1	14	0	0	0	stim002_stimuli_original_animals_birds_2.png	V	0	0	0	432.322442365927	432.522477035527
414.541	0.2	644	17	1	39	32	12	15	0	0	0	stim013_stimuli_original_vehicles_planes_1.png	Y	0	0	0	432.722466600477	432.922509559779
414.941	0.2	645	17	1	39	33	4	4	0	0	0	stim005_stimuli_original_animals_fish_1.png	E	0	0	0	433.122489616158	433.3224952725
415.341	0.2	646	17	1	39	34	5	9	0	0	0	stim006_stimuli_original_animals_fish_2.png	L	0	0	0	433.522503123153	433.722488787142
415.741	0.2	647	17	1	39	35	3	0	0	0	0	stim004_stimuli_original_animals_birds_4.png	A	0	0	0	433.922512241639	434.122498149518
418.925	0.2	648	18	0	16	0	13	1	0	0	0	stim014_stimuli_original_vehicles_planes_2.png	B	0	0	0	437.105941050802	437.305927202338
419.325	0.2	649	18	0	16	1	11	8	0	0	0	stim012_stimuli_original_vehicles_boats_4.png	K	0	0	0	437.505946268328	437.705953387544
419.725	0.2	650	18	0	16	2	9	9	0	0	0	stim010_stimuli_original_vehicles_boats_2.png	L	0	0	0	437.90593978297	438.105942757451
420.125	0.2	651	18	0	16	3	15	5	0	0	0	stim016_stimuli_original_vehicles_planes_4.png	F	0	0	0	438.305969625246	438.505970405415
420.525	0.2	652	18	0	16	4	14	0	0	0	0	stim015_stimuli_original_vehicles_planes_3.png	A	0	0	0	438.705979475169	438.905962944846
420.925	0.2	653	18	0	16	5	10	7	0	0	0	stim011_stimuli_original_vehicles_boats_3.png	J	0	0	0	439.105987618328	439.305974257644
421.325	0.2	654	18	0	16	6	6	15	0	1	0	stim007_stimuli_original_animals_fish_3.png	Y	0	0	0	439.506512149936	439.705986789428
421.725	0.2	655	18	0	16	7	3	12	0	0	0	stim004_stimuli_original_animals_birds_4.png	T	0	0	0	439.906007805839	440.105995176476
422.125	0.2	656	18	0	16	8	8	15	0	1	0	stim009_stimuli_original_vehicles_boats_1.png	Y	0	0	0	440.305997663294	440.505992348306
422.525	0.2	657	18	0	16	9	5	11	0	0	0	stim006_stimuli_original_animals_fish_2.png	R	0	0	0	440.705996785546	440.906003660988
422.925	0.2	658	18	0	16	10	9	4	1	0	0	stim010_stimuli_original_vehicles_boats_2.png	E	0	0	0	441.106011755532	441.306012291927
423.325	0.2	659	18	0	16	11	1	2	0	0	0	stim002_stimuli_original_animals_birds_2.png	C	0	0	0	441.506019411143	441.70602750557
423.725	0.2	660	18	0	16	12	9	10	1	0	1	stim010_stimuli_original_vehicles_boats_2.png	Q	NaN	441.898587953299	1	441.906038769637	442.106056616409
424.125	0.2	661	18	0	16	13	0	13	0	0	0	stim001_stimuli_original_animals_birds_1.png	U	0	0	0	442.306046181358	442.506052569253
424.525	0.2	662	18	0	16	14	7	15	0	0	0	stim008_stimuli_original_animals_fish_4.png	Y	0	0	0	442.70604822936	442.906050716294
424.925	0.2	663	18	0	16	15	12	6	0	0	0	stim013_stimuli_original_vehicles_planes_1.png	G	0	0	0	443.106056616409	443.306073244195
425.325	0.2	664	18	0	16	16	2	14	0	0	0	stim003_stimuli_original_animals_birds_3.png	V	0	0	0	443.50612668728	443.70611332648
425.725	0.2	665	18	0	16	17	4	3	0	0	0	stim005_stimuli_original_animals_fish_1.png	D	0	0	0	443.906101916218	444.106119763106
426.125	0.2	666	18	0	16	18	3	4	0	0	0	stim004_stimuli_original_animals_birds_4.png	E	0	0	0	444.306108596618	444.506132538663
426.525	0.2	667	18	0	16	19	14	2	0	0	0	stim015_stimuli_original_vehicles_planes_3.png	C	0	0	0	444.706134781707	444.906381078064
426.925	0.2	668	18	0	16	20	6	12	0	0	0	stim007_stimuli_original_animals_fish_3.png	T	0	0	0	445.106125614489	445.306127369986
427.325	0.2	669	18	0	16	21	15	7	0	0	0	stim016_stimuli_original_vehicles_planes_4.png	J	0	0	0	445.506130100577	445.70614087698
427.725	0.2	670	18	0	16	22	13	0	0	0	0	stim014_stimuli_original_vehicles_planes_2.png	A	0	0	0	445.906128003844	446.106143900193
428.125	0.2	671	18	0	16	23	10	9	0	1	0	stim011_stimuli_original_vehicles_boats_3.png	L	0	0	0	446.306154432823	446.506163990125
428.525	0.2	672	18	0	16	24	2	1	0	0	0	stim003_stimuli_original_animals_birds_3.png	B	0	0	0	446.70618793217	446.906192369526
428.925	0.2	673	18	0	16	25	4	9	0	1	0	stim005_stimuli_original_animals_fish_1.png	L	0	0	0	447.106182909687	447.306185640395
429.325	0.2	674	18	0	16	26	11	5	0	0	0	stim012_stimuli_original_vehicles_boats_4.png	F	0	0	0	447.50620982633	447.706202073139
429.725	0.2	675	18	0	16	27	15	8	1	0	0	stim016_stimuli_original_vehicles_planes_4.png	K	0	0	0	447.90621918859	448.106207778328
430.125	0.2	676	18	0	16	28	12	3	0	0	0	stim013_stimuli_original_vehicles_planes_1.png	D	0	0	0	448.306234889897	448.506235913839
430.525	0.2	677	18	0	16	29	15	6	1	0	1	stim016_stimuli_original_vehicles_planes_4.png	G	0	0	0	448.706224991241	448.90621333709
430.925	0.2	678	18	0	16	30	7	10	0	0	0	stim008_stimuli_original_animals_fish_4.png	Q	NaN	449.098762325826	1	449.10624166776	449.30625610135
431.325	0.2	679	18	0	16	31	0	14	0	0	0	stim001_stimuli_original_animals_birds_1.png	V	0	0	0	449.506265902426	449.70626814547
431.725	0.2	680	18	0	16	32	5	15	0	0	0	stim006_stimuli_original_animals_fish_2.png	Y	0	0	0	449.906275020912	450.106276532519
432.125	0.2	681	18	0	16	33	9	9	0	0	0	stim010_stimuli_original_vehicles_boats_2.png	L	0	0	0	450.306291697547	450.506295647239
432.525	0.2	682	18	0	16	34	8	11	0	0	0	stim009_stimuli_original_vehicles_boats_1.png	R	0	0	0	450.706297890283	450.906274533365
432.925	0.2	683	18	0	16	35	1	13	0	0	0	stim002_stimuli_original_animals_birds_2.png	U	0	0	0	451.106273119221	451.306271705078
438.109	0.2	684	19	1	5	0	14	1	0	0	0	stim015_stimuli_original_vehicles_planes_3.png	B	0	0	0	456.289772876888	456.489770975197
438.509	0.2	685	19	1	5	1	12	14	0	0	0	stim013_stimuli_original_vehicles_planes_1.png	V	0	0	0	456.689779313398	456.889782044105
438.909	0.2	686	19	1	5	2	1	10	0	0	0	stim002_stimuli_original_animals_birds_2.png	Q	0	0	0	457.089800378541	457.289796038764
439.309	0.2	687	19	1	5	3	8	3	0	0	0	stim009_stimuli_original_vehicles_boats_1.png	D	0	0	0	457.489802914206	457.689794429578
439.709	0.2	688	19	1	5	4	3	13	0	0	0	stim004_stimuli_original_animals_birds_4.png	U	0	0	0	457.889809350716	458.089810862322
440.109	0.2	689	19	1	5	5	4	9	0	0	0	stim005_stimuli_original_animals_fish_1.png	L	0	0	0	458.289821638726	458.48983363423
440.509	0.2	690	19	1	5	6	13	0	0	1	0	stim014_stimuli_original_vehicles_planes_2.png	A	0	0	0	458.689832707751	458.88983714499
440.909	0.2	691	19	1	5	7	14	11	1	0	0	stim015_stimuli_original_vehicles_planes_3.png	R	0	0	0	459.089838656597	459.289821151178
441.309	0.2	692	19	1	5	8	7	0	0	1	1	stim008_stimuli_original_animals_fish_4.png	A	0	0	0	459.489854845568	459.68984392297
441.709	0.2	693	19	1	5	9	14	4	1	0	0	stim015_stimuli_original_vehicles_planes_3.png	E	0	0	0	459.889846653561	460.089870351832
442.109	0.2	694	19	1	5	10	0	5	0	0	0	stim001_stimuli_original_animals_birds_1.png	F	NaN	460.28241470817	1	460.28985796636	460.489879957982
442.509	0.2	695	19	1	5	11	2	6	0	0	0	stim003_stimuli_original_animals_birds_3.png	G	0	0	0	460.689891465823	460.889892489766
442.909	0.2	696	19	1	5	12	11	7	0	0	0	stim012_stimuli_original_vehicles_boats_4.png	J	0	0	0	461.089896683348	461.289902583463
443.309	0.2	697	19	1	5	13	15	12	0	0	0	stim016_stimuli_original_vehicles_planes_4.png	T	0	0	0	461.489908727468	461.689912189613
443.709	0.2	698	19	1	5	14	5	2	0	0	0	stim006_stimuli_original_animals_fish_2.png	C	0	0	0	461.889923941228	462.089926184271
444.109	0.2	699	19	1	5	15	9	8	0	0	0	stim010_stimuli_original_vehicles_boats_2.png	K	0	0	0	462.289904290112	462.489907752257
444.509	0.2	700	19	1	5	16	6	0	0	0	0	stim007_stimuli_original_animals_fish_3.png	A	0	0	0	462.689940227661	462.889927354525
444.909	0.2	701	19	1	5	17	10	15	0	0	0	stim011_stimuli_original_vehicles_boats_3.png	Y	0	0	0	463.089950809022	463.289937691996
445.309	0.2	702	19	1	5	18	15	10	0	0	0	stim016_stimuli_original_vehicles_planes_4.png	Q	0	0	0	463.489945055102	463.689987282851
445.709	0.2	703	19	1	5	19	0	6	0	0	0	stim001_stimuli_original_animals_birds_1.png	G	0	0	0	463.889971240191	464.089959342382
446.109	0.2	704	19	1	5	20	8	9	0	0	0	stim009_stimuli_original_vehicles_boats_1.png	L	0	0	0	464.289981333888	464.489971874165
446.509	0.2	705	19	1	5	21	2	5	0	0	0	stim003_stimuli_original_animals_birds_3.png	F	0	0	0	464.689992159023	464.889999278355
446.909	0.2	706	19	1	5	22	12	15	0	0	0	stim013_stimuli_original_vehicles_planes_1.png	Y	0	0	0	465.090441353619	465.289995718747
447.309	0.2	707	19	1	5	23	7	11	0	0	0	stim008_stimuli_original_animals_fish_4.png	R	0	0	0	465.490016003605	465.690019953297
447.709	0.2	708	19	1	5	24	6	2	0	0	0	stim007_stimuli_original_animals_fish_3.png	C	0	0	0	465.890031217365	466.090030778432
448.109	0.2	709	19	1	5	25	5	0	0	0	0	stim006_stimuli_original_animals_fish_2.png	A	0	0	0	466.290035459679	466.490022830316
448.509	0.2	710	19	1	5	26	4	14	0	1	0	stim005_stimuli_original_animals_fish_1.png	V	0	0	0	466.690030924743	466.890049015405
448.909	0.2	711	19	1	5	27	0	7	1	0	0	stim001_stimuli_original_animals_birds_1.png	J	0	0	0	467.090058572707	467.290044480585
449.309	0.2	712	19	1	5	28	11	14	0	1	1	stim012_stimuli_original_vehicles_boats_4.png	V	0	0	0	467.490067447419	467.690049210447
449.709	0.2	713	19	1	5	29	0	13	1	0	0	stim001_stimuli_original_animals_birds_1.png	U	0	0	0	467.890076809679	468.090067106066
450.109	0.2	714	19	1	5	30	9	4	0	0	0	stim010_stimuli_original_vehicles_boats_2.png	E	0	0	0	468.290074712946	468.490093778819
450.509	0.2	715	19	1	5	31	13	3	0	0	0	stim014_stimuli_original_vehicles_planes_2.png	D	NaN	468.682654714095	1	468.690103336121	468.89010704204
450.909	0.2	716	19	1	5	32	3	8	0	0	0	stim004_stimuli_original_animals_birds_4.png	K	0	0	0	469.09010050795	469.290099825361
451.309	0.2	717	19	1	5	33	10	1	0	0	0	stim011_stimuli_original_vehicles_boats_3.png	B	0	0	0	469.490121573093	469.690090414253
451.709	0.2	718	19	1	5	34	14	12	0	0	0	stim015_stimuli_original_vehicles_planes_3.png	T	0	0	0	469.890134104877	470.0901356166
452.109	0.2	719	19	1	5	35	1	14	0	0	0	stim002_stimuli_original_animals_birds_2.png	V	0	0	0	470.290159558645	470.490585298627
454.942	0.2	720	20	0	44	0	9	9	0	0	0	stim010_stimuli_original_vehicles_boats_2.png	L	0	0	0	473.123557013809	473.323555112118
455.342	0.2	721	20	0	44	1	12	10	0	0	0	stim013_stimuli_original_vehicles_planes_1.png	Q	0	0	0	473.523562231334	473.723570569651
455.742	0.2	722	20	0	44	2	8	6	0	0	0	stim009_stimuli_original_vehicles_boats_1.png	G	0	0	0	473.923572568921	474.123577006278
456.142	0.2	723	20	0	44	3	0	15	0	0	0	stim001_stimuli_original_animals_birds_1.png	Y	0	0	0	474.323585100705	474.523574665654
456.542	0.2	724	20	0	44	4	6	4	0	0	0	stim007_stimuli_original_animals_fish_3.png	E	0	0	0	474.723594462965	474.923580614617
456.942	0.2	725	20	0	44	5	13	14	0	0	0	stim014_stimuli_original_vehicles_planes_2.png	V	0	0	0	475.123590659583	475.32361021312
457.342	0.2	726	20	0	44	6	11	7	0	0	0	stim012_stimuli_original_vehicles_boats_4.png	J	0	0	0	475.523612699937	475.72361664963
457.742	0.2	727	20	0	44	7	1	11	0	0	0	stim002_stimuli_original_animals_birds_2.png	R	0	0	0	475.923624987947	476.123622842366
458.142	0.2	728	20	0	44	8	12	4	1	1	0	stim013_stimuli_original_vehicles_planes_1.png	E	0	0	0	476.323627279722	476.523625378031
458.542	0.2	729	20	0	44	9	15	0	0	0	0	stim016_stimuli_original_vehicles_planes_4.png	A	0	0	0	476.723635910545	476.923648149823
458.942	0.2	730	20	0	44	10	12	4	1	1	1	stim013_stimuli_original_vehicles_planes_1.png	E	0	0	0	477.123642834718	477.323651416809
459.342	0.2	731	20	0	44	11	3	13	0	0	0	stim004_stimuli_original_animals_birds_4.png	U	0	0	0	477.523648783681	477.724018203793
459.742	0.2	732	20	0	44	12	5	3	0	0	0	stim006_stimuli_original_animals_fish_2.png	D	0	0	0	477.923671555473	478.123687208048
460.142	0.2	733	20	0	44	13	2	2	0	0	0	stim003_stimuli_original_animals_birds_3.png	C	0	0	0	478.323696521576	478.523697301745
460.542	0.2	734	20	0	44	14	4	5	0	0	0	stim005_stimuli_original_animals_fish_1.png	F	0	0	0	478.723687110585	478.923706176458
460.942	0.2	735	20	0	44	15	10	8	0	0	0	stim011_stimuli_original_vehicles_boats_3.png	K	0	0	0	479.123717684299	479.323716757819
461.342	0.2	736	20	0	44	16	14	12	0	0	0	stim015_stimuli_original_vehicles_planes_3.png	T	0	0	0	479.52372509602	479.723730996251
461.742	0.2	737	20	0	44	17	7	1	0	0	0	stim008_stimuli_original_animals_fish_4.png	B	0	0	0	479.923735433607	480.123741577612
462.142	0.2	738	20	0	44	18	1	7	0	0	0	stim002_stimuli_original_animals_birds_2.png	J	0	0	0	480.323751378688	480.523727777996
462.542	0.2	739	20	0	44	19	12	14	0	0	0	stim013_stimuli_original_vehicles_planes_1.png	V	0	0	0	480.723751476267	480.923744942178
462.942	0.2	740	20	0	44	20	8	10	0	0	0	stim009_stimuli_original_vehicles_boats_1.png	Q	0	0	0	481.123762057628	481.323768445407
463.342	0.2	741	20	0	44	21	5	4	0	0	0	stim006_stimuli_original_animals_fish_2.png	E	0	0	0	481.523774101748	481.723786828574
463.742	0.2	742	20	0	44	22	2	2	0	0	0	stim003_stimuli_original_animals_birds_3.png	C	0	0	0	481.923784683109	482.123795459513
464.142	0.2	743	20	0	44	23	3	5	0	0	0	stim004_stimuli_original_animals_birds_4.png	F	0	0	0	482.323778197751	482.523798238952
464.543	0.2	744	20	0	44	24	13	3	0	0	0	stim014_stimuli_original_vehicles_planes_2.png	D	0	0	0	482.723806089605	482.923791753594
464.943	0.2	745	20	0	44	25	4	12	1	1	0	stim005_stimuli_original_animals_fish_1.png	T	0	0	0	483.123820571811	483.323823790182
465.343	0.2	746	20	0	44	26	0	15	0	0	0	stim001_stimuli_original_animals_birds_1.png	Y	0	0	0	483.523826764664	483.723813891411
465.743	0.2	747	20	0	44	27	4	12	1	1	1	stim005_stimuli_original_animals_fish_1.png	T	0	0	0	483.923822717392	484.123840076616
466.143	0.2	748	20	0	44	28	11	1	0	0	0	stim012_stimuli_original_vehicles_boats_4.png	B	0	0	0	484.323830373003	484.523822619813
466.543	0.2	749	20	0	44	29	7	11	0	0	0	stim008_stimuli_original_animals_fish_4.png	R	NaN	484.716378922807	1	484.723858508631	484.923861726886
466.943	0.2	750	20	0	44	30	14	13	0	0	0	stim015_stimuli_original_vehicles_planes_3.png	U	0	0	0	485.123867627117	485.323873039684
467.343	0.2	751	20	0	44	31	4	6	0	0	0	stim005_stimuli_original_animals_fish_1.png	G	0	0	0	485.523850414087	485.723852169584
467.743	0.2	752	20	0	44	32	15	0	0	0	0	stim016_stimuli_original_vehicles_planes_4.png	A	0	0	0	485.923859776347	486.123865432804
468.143	0.2	753	20	0	44	33	6	8	0	0	0	stim007_stimuli_original_animals_fish_3.png	K	0	0	0	486.323872064357	486.523871381767
468.543	0.2	754	20	0	44	34	10	12	0	0	0	stim011_stimuli_original_vehicles_boats_3.png	T	0	0	0	486.723881426733	486.923904393567
468.943	0.2	755	20	0	44	35	9	9	0	0	0	stim010_stimuli_original_vehicles_boats_2.png	L	0	0	0	487.123893470853	487.323901321506
472.576	0.2	756	21	1	34	0	1	14	0	0	0	stim002_stimuli_original_animals_birds_2.png	V	NaN	490.750025112415	0	490.757360850577	490.957345783245
472.976	0.2	757	21	1	34	1	12	5	0	0	0	stim013_stimuli_original_vehicles_planes_1.png	F	0	0	0	491.157353877672	491.357373918756
473.376	0.2	758	21	1	34	2	13	10	0	0	0	stim014_stimuli_original_vehicles_planes_2.png	Q	0	0	0	491.55737933144	491.757387425867
473.776	0.2	759	21	1	34	3	0	7	0	0	0	stim001_stimuli_original_animals_birds_1.png	J	NaN	492.149186993018	0	491.957372114644	492.157397275791
474.176	0.2	760	21	1	34	4	15	13	0	0	0	stim016_stimuli_original_vehicles_planes_4.png	U	0	0	0	492.357358802576	492.557402980863
474.576	0.2	761	21	1	34	5	2	4	0	0	0	stim003_stimuli_original_animals_birds_3.png	E	0	0	0	492.75740449247	492.95740380988
474.976	0.2	762	21	1	34	6	9	15	0	0	0	stim010_stimuli_original_vehicles_boats_2.png	Y	0	0	0	493.157412391971	493.357418292086
475.376	0.2	763	21	1	34	7	6	9	0	1	0	stim007_stimuli_original_animals_fish_3.png	L	0	0	0	493.557446378982	493.757425703923
475.776	0.2	764	21	1	34	8	13	8	1	0	0	stim014_stimuli_original_vehicles_planes_2.png	K	0	0	0	493.957438186975	494.157434822409
476.176	0.2	765	21	1	34	9	7	9	0	1	1	stim008_stimuli_original_animals_fish_4.png	L	0	0	0	494.357441941625	494.557451742818
476.576	0.2	766	21	1	34	10	13	1	1	0	0	stim014_stimuli_original_vehicles_planes_2.png	B	0	0	0	494.757454473409	494.957485486055
476.976	0.2	767	21	1	34	11	11	12	0	0	0	stim012_stimuli_original_vehicles_boats_4.png	T	0	0	0	495.157437260495	495.357444135938
477.376	0.2	768	21	1	34	12	5	9	0	0	0	stim006_stimuli_original_animals_fish_2.png	L	0	0	0	495.557451255154	495.7574500849
477.776	0.2	769	21	1	34	13	3	2	0	0	0	stim004_stimuli_original_animals_birds_4.png	C	0	0	0	495.957469882211	496.157474807114
478.176	0.2	770	21	1	34	14	4	0	0	0	0	stim005_stimuli_original_animals_fish_1.png	A	NaN	496.350049395813	1	496.357737926301	496.557514889399
478.576	0.2	771	21	1	34	15	14	11	0	0	0	stim015_stimuli_original_vehicles_planes_3.png	R	0	0	0	496.757513475372	496.9575169374
478.976	0.2	772	21	1	34	16	10	3	0	0	0	stim011_stimuli_original_vehicles_boats_3.png	D	0	0	0	497.157505770912	497.357528250199
479.376	0.2	773	21	1	34	17	8	6	0	0	0	stim009_stimuli_original_vehicles_boats_1.png	G	0	0	0	497.557540977024	497.757538343896
479.776	0.2	774	21	1	34	18	6	8	0	0	0	stim007_stimuli_original_animals_fish_3.png	K	0	0	0	497.957545219338	498.157530883327
480.176	0.2	775	21	1	34	19	3	10	0	0	0	stim004_stimuli_original_animals_birds_4.png	Q	0	0	0	498.357536783558	498.557558287517
480.576	0.2	776	21	1	34	20	11	14	0	0	0	stim012_stimuli_original_vehicles_boats_4.png	V	0	0	0	498.75756516296	498.957570087863
480.976	0.2	777	21	1	34	21	0	4	0	0	0	stim001_stimuli_original_animals_birds_1.png	E	0	0	0	499.157574768993	499.357577743474
481.376	0.2	778	21	1	34	22	2	3	0	0	0	stim003_stimuli_original_animals_birds_3.png	D	0	0	0	499.55756974651	499.757572964882
481.776	0.2	779	21	1	34	23	9	5	0	0	0	stim010_stimuli_original_vehicles_boats_2.png	F	0	0	0	499.95757935266	500.157599393744
482.176	0.2	780	21	1	34	24	12	11	0	0	0	stim013_stimuli_original_vehicles_planes_1.png	R	0	0	0	500.357590909232	500.557609975105
482.576	0.2	781	21	1	34	25	1	13	0	1	0	stim002_stimuli_original_animals_birds_2.png	U	0	0	0	500.75761904486	500.957621531677
482.976	0.2	782	21	1	34	26	9	7	1	0	0	stim010_stimuli_original_vehicles_boats_2.png	J	0	0	0	501.15761694801	501.35763040639
483.376	0.2	783	21	1	34	27	8	13	0	1	1	stim009_stimuli_original_vehicles_boats_1.png	U	0	0	0	501.557639476028	501.757912591333
483.776	0.2	784	21	1	34	28	9	6	1	0	0	stim010_stimuli_original_vehicles_boats_2.png	G	0	0	0	501.957653714577	502.157652544207
484.176	0.2	785	21	1	34	29	15	9	0	0	0	stim016_stimuli_original_vehicles_planes_4.png	L	0	0	0	502.357659663423	502.557661175146
484.576	0.2	786	21	1	34	30	4	2	0	0	0	stim005_stimuli_original_animals_fish_1.png	C	0	0	0	502.757673658081	502.957675169804
484.976	0.2	787	21	1	34	31	13	15	0	0	0	stim014_stimuli_original_vehicles_planes_2.png	Y	0	0	0	503.15768228902	503.35766892822
485.376	0.2	788	21	1	34	32	7	0	0	0	0	stim008_stimuli_original_animals_fish_4.png	A	0	0	0	503.557678973186	503.757704865769
485.776	0.2	789	21	1	34	33	10	13	0	0	0	stim011_stimuli_original_vehicles_boats_3.png	U	0	0	0	503.957710034447	504.157713740366
486.176	0.2	790	21	1	34	34	5	12	0	0	0	stim006_stimuli_original_animals_fish_2.png	T	0	0	0	504.3577162273	504.557720664539
486.576	0.2	791	21	1	34	35	14	1	0	0	0	stim015_stimuli_original_vehicles_planes_3.png	B	0	0	0	504.757726077107	504.957722224994
510.427	0.2	792	22	0	9	0	10	5	0	0	0	stim011_stimuli_original_vehicles_boats_3.png	F	0	0	0	528.608334527933	528.808328237734
510.827	0.2	793	22	0	9	1	5	10	0	0	0	stim006_stimuli_original_animals_fish_2.png	Q	0	0	0	529.008336575935	529.208338331431
511.227	0.2	794	22	0	9	2	4	9	0	0	0	stim005_stimuli_original_animals_fish_1.png	L	0	0	0	529.408349839272	529.608352569863
511.627	0.2	795	22	0	9	3	14	8	0	0	0	stim015_stimuli_original_vehicles_planes_3.png	K	0	0	0	529.808356032008	530.008769093896
512.027	0.2	796	22	0	9	4	9	0	0	0	0	stim010_stimuli_original_vehicles_boats_2.png	A	0	0	0	530.208373927628	530.408404940157
512.427	0.2	797	22	0	9	5	0	14	0	1	0	stim001_stimuli_original_animals_birds_1.png	V	0	0	0	530.608409133623	530.80841088912
512.827	0.2	798	22	0	9	6	1	1	1	0	0	stim002_stimuli_original_animals_birds_2.png	B	0	0	0	531.008406793117	531.208408792387
