onset	duration	eventnumber	sequencenumber	condition	streamnumber	stimnumber	objectstimnumber	letterstimnumber	objecttarget	lettertarget	is2back	objectstim	letterstim	response	rt	correct	time_stimon	time_stimoff
12485	100	0	0	0	0	0	6	12	0	0	0	stim007_stimuli_original_animals_fish_3.png	T	0	0	0	34.7263585305773	34.9263405373786
12585.25	100	1	0	0	0	1	7	5	0	0	0	stim008_stimuli_original_animals_fish_4.png	F	0	0	0	35.1271934316028	35.3263577015605
12685	100	2	0	0	0	2	4	6	0	0	0	stim005_stimuli_original_animals_fish_1.png	G	0	0	0	35.5263796930667	35.7263833989855
12785	100	3	0	0	0	3	0	0	0	0	0	stim001_stimuli_original_animals_birds_1.png	A	0	0	0	35.9263844231609	36.1263603346888
12885	100	4	0	0	0	4	9	11	0	0	0	stim010_stimuli_original_vehicles_boats_2.png	R	0	0	0	36.3263884214684	36.5264011484105
12985	100	5	0	0	0	5	5	3	0	0	0	stim006_stimuli_original_animals_fish_2.png	D	0	0	0	36.7264099742752	36.926412217319
13085	100	6	0	0	0	6	13	10	0	0	0	stim014_stimuli_original_vehicles_planes_2.png	Q	0	0	0	37.1263934927993	37.3264006120153
13185.25	100	7	0	0	0	7	15	14	0	0	0	stim016_stimuli_original_vehicles_planes_4.png	V	0	0	0	37.5264330874197	37.7264038790017
13285	100	8	0	0	0	8	1	1	0	0	0	stim002_stimuli_original_animals_birds_2.png	B	0	0	0	37.9264097793493	38.1264112908393
13385.25	100	9	0	0	0	9	5	2	1	0	0	stim006_stimuli_original_animals_fish_2.png	C	0	0	0	38.3264284061734	38.5264252854977
13485.25	100	10	0	0	0	10	12	8	0	0	0	stim013_stimuli_original_vehicles_planes_1.png	K	0	0	0	38.7264397190884	38.9264331848826
13585.25	100	11	0	0	0	11	5	4	1	0	1	stim006_stimuli_original_animals_fish_2.png	E	d	39.1191050535999	1	39.1264410356525	39.3264476673212
13685.25	100	12	0	0	0	12	8	12	0	1	0	stim009_stimuli_original_vehicles_boats_1.png	T	0	0	0	39.5264516170137	39.7264550789259
13785.25	100	13	0	0	0	13	14	7	0	0	0	stim015_stimuli_original_vehicles_planes_3.png	J	0	0	0	39.9264602477197	40.1264651727397
13885.25	100	14	0	0	0	14	11	12	0	1	0	stim012_stimuli_original_vehicles_boats_4.png	T	0	0	0	40.3265137395356	40.5265062302351
13985.25	100	15	0	0	0	15	10	9	0	0	0	stim011_stimuli_original_vehicles_boats_3.png	L	0	0	0	40.7265128619038	40.9265177869238
14085.25	100	16	0	0	0	16	3	15	0	0	0	stim004_stimuli_original_animals_birds_4.png	Y	0	0	0	41.1265249061398	41.326509838691
14185.25	100	17	0	0	0	17	2	13	0	0	0	stim003_stimuli_original_animals_birds_3.png	U	0	0	0	41.5265357312746	41.726543338038
14285.25	100	18	0	0	0	18	13	2	0	0	0	stim014_stimuli_original_vehicles_planes_2.png	C	0	0	0	41.9265238819644	42.1265483116731
14385.25	100	19	0	0	0	19	15	3	0	0	0	stim016_stimuli_original_vehicles_planes_4.png	D	0	0	0	42.3265546995681	42.5265620625578
14485.25	100	20	0	0	0	20	9	10	0	0	0	stim010_stimuli_original_vehicles_boats_2.png	Q	0	0	0	42.7265669875778	42.9265582591761
14585.25	100	21	0	0	0	21	12	11	1	0	0	stim013_stimuli_original_vehicles_planes_1.png	R	0	0	0	43.1265475803521	43.3265512862708
14685.25	100	22	0	0	0	22	7	14	0	0	0	stim008_stimuli_original_animals_fish_4.png	V	d	43.5191139283124	0	43.5265579179395	43.7265691817738
14785.25	100	23	0	0	0	23	12	8	1	0	1	stim013_stimuli_original_vehicles_planes_1.png	K	0	0	0	43.9265716685914	44.1265956107527
14885.25	100	24	0	0	0	24	4	5	0	1	0	stim005_stimuli_original_animals_fish_1.png	F	0	0	0	44.326611750992	44.526594001567
14985.25	100	25	0	0	0	25	8	12	0	0	0	stim009_stimuli_original_vehicles_boats_1.png	T	0	0	0	44.7266257456504	44.9266233562957
15085.25	100	26	0	0	0	26	2	5	0	1	0	stim003_stimuli_original_animals_birds_3.png	F	0	0	0	45.1266129212454	45.3266144329682
15185.25	100	27	0	0	0	27	1	1	0	0	0	stim002_stimuli_original_animals_birds_2.png	B	0	0	0	45.5266447139438	45.7266476885416
15285.25	100	28	0	0	0	28	14	15	0	0	0	stim015_stimuli_original_vehicles_planes_3.png	Y	0	0	0	45.9266594401561	46.1266526621766
15385.25	100	29	0	0	0	29	10	13	0	0	0	stim011_stimuli_original_vehicles_boats_3.png	U	0	0	0	46.3266466157511	46.5266527596395
15485.25	100	30	0	0	0	30	3	5	0	0	0	stim004_stimuli_original_animals_birds_4.png	F	0	0	0	46.726671581855	46.926682358142
15585.25	100	31	0	0	0	31	11	9	0	0	0	stim012_stimuli_original_vehicles_boats_4.png	L	0	0	0	47.1266865516081	47.326669533737
15685.25	100	32	0	0	0	32	0	0	0	0	0	stim001_stimuli_original_animals_birds_1.png	A	0	0	0	47.5266749463044	47.7267032770906
15785.25	100	33	0	0	0	33	6	4	0	0	0	stim007_stimuli_original_animals_fish_3.png	E	0	0	0	47.9267267314717	48.1267133706715
15885.25	100	34	0	0	0	34	5	7	0	0	0	stim006_stimuli_original_animals_fish_2.png	J	0	0	0	48.3267148823943	48.526695182547
15985.25	100	35	0	0	0	35	12	6	0	0	0	stim013_stimuli_original_vehicles_planes_1.png	G	0	0	0	48.7267035208642	48.9267303885426
16789.25	100	36	1	1	19	0	11	7	0	0	0	stim012_stimuli_original_vehicles_boats_4.png	J	0	0	0	51.9434642491397	52.143461859785
16889.25	100	37	1	1	19	1	13	9	0	0	0	stim014_stimuli_original_vehicles_planes_2.png	L	0	0	0	52.3434631277341	52.5434731727
16989.5	100	38	1	1	19	2	2	4	0	0	0	stim003_stimuli_original_animals_birds_3.png	E	0	0	0	52.7434822423384	52.9437495062593
17089.5	100	39	1	1	19	3	0	0	0	0	0	stim001_stimuli_original_animals_birds_1.png	A	0	0	0	53.1435135474894	53.3434977487195
17189.5	100	40	1	1	19	4	10	10	0	0	0	stim011_stimuli_original_vehicles_boats_3.png	Q	0	0	0	53.5435097441077	53.7435297851916
17289.5	100	41	1	1	19	5	15	2	0	0	0	stim016_stimuli_original_vehicles_planes_4.png	C	0	0	0	53.9435300778132	54.1435369532555
17389.5	100	42	1	1	19	6	1	14	0	0	0	stim002_stimuli_original_animals_birds_2.png	V	0	0	0	54.3435287124012	54.543523153523
17489.5	100	43	1	1	19	7	14	8	0	0	0	stim015_stimuli_original_vehicles_planes_3.png	K	0	0	0	54.7435349051375	54.9435354415327
17589.5	100	44	1	1	19	8	13	5	1	0	0	stim014_stimuli_original_vehicles_planes_2.png	F	0	0	0	55.1435413416475	55.3435455353465
17689.5	100	45	1	1	19	9	12	15	0	0	0	stim013_stimuli_original_vehicles_planes_1.png	Y	0	0	0	55.5435519230086	55.7435583109036
17789.5	100	46	1	1	19	10	13	13	1	0	0	stim014_stimuli_original_vehicles_planes_2.png	U	0	0	0	55.9435625043698	56.1435881531797
17889.5	100	47	1	1	19	11	3	6	0	0	0	stim004_stimuli_original_animals_birds_4.png	G	0	0	0	56.3435774743557	56.5435736221261
17989.5	100	48	1	1	19	12	4	8	0	1	0	stim005_stimuli_original_animals_fish_1.png	K	0	0	0	56.7435875679366	56.9435883481055
18089.5	100	49	1	1	19	13	9	3	0	0	0	stim010_stimuli_original_vehicles_boats_2.png	D	d	57.3353610963095	0	57.1435957113281	57.3436006361153
18189.5	100	50	1	1	19	14	7	8	0	1	1	stim008_stimuli_original_animals_fish_4.png	K	0	0	0	57.5436079993378	57.7436058537569
18289.5	100	51	1	1	19	15	5	12	0	0	0	stim006_stimuli_original_animals_fish_2.png	T	0	0	0	57.9436205311213	58.1436532502994
18389.5	100	52	1	1	19	16	6	1	0	0	0	stim007_stimuli_original_animals_fish_3.png	B	d	58.336228082655	1	58.3436579313129	58.5436552981846
18489.5	100	53	1	1	19	17	8	11	0	0	0	stim009_stimuli_original_vehicles_boats_1.png	R	0	0	0	58.7436419376172	58.9436453995295
18589.5	100	54	1	1	19	18	11	8	0	0	0	stim012_stimuli_original_vehicles_boats_4.png	K	0	0	0	59.1436686103698	59.343673535157
18689.5	100	55	1	1	19	19	1	6	0	0	0	stim002_stimuli_original_animals_birds_2.png	G	d	59.7354431138374	1	59.5436804105993	59.7436831411906
18789.5	100	56	1	1	19	20	12	5	0	0	0	stim013_stimuli_original_vehicles_planes_1.png	F	0	0	0	59.9436929423828	60.143684213981
18889.5	100	57	1	1	19	21	8	7	1	0	0	stim009_stimuli_original_vehicles_boats_1.png	J	0	0	0	60.3437071808148	60.5436882125214
18989.5	100	58	1	1	19	22	3	9	0	0	0	stim004_stimuli_original_animals_birds_4.png	L	0	0	0	60.7437065469567	60.9436897728592
19089.5	100	59	1	1	19	23	8	4	1	0	0	stim009_stimuli_original_vehicles_boats_1.png	E	0	0	0	61.1437322446145	61.3437286361586
19189.5	100	60	1	1	19	24	6	3	0	0	0	stim007_stimuli_original_animals_fish_3.png	D	0	0	0	61.5437374620233	61.7437350726686
19289.5	100	61	1	1	19	25	13	13	0	1	0	stim014_stimuli_original_vehicles_planes_2.png	U	0	0	0	61.9437219558749	62.143739071209
19389.5	100	62	1	1	19	26	15	12	0	0	0	stim016_stimuli_original_vehicles_planes_4.png	T	0	0	0	62.3437125447672	62.5437323420774
19489.5	100	63	1	1	19	27	5	13	0	1	1	stim006_stimuli_original_animals_fish_2.png	U	0	0	0	62.7437482383102	62.9437765690964
19589.5	100	64	1	1	19	28	8	14	0	0	0	stim009_stimuli_original_vehicles_boats_1.png	V	d	63.1363326280843	1	63.1437824692111	63.3437883695588
19689.5	100	65	1	1	19	29	14	1	0	0	0	stim015_stimuli_original_vehicles_planes_3.png	B	0	0	0	63.5440066277515	63.7437974880449
19789.5	100	66	1	1	19	30	2	15	0	0	0	stim003_stimuli_original_animals_birds_3.png	Y	0	0	0	63.9437848585658	64.1438027054537
19889.5	100	67	1	1	19	31	10	10	0	0	0	stim011_stimuli_original_vehicles_boats_3.png	Q	0	0	0	64.343801778974	64.5437964638695
19989.5	100	68	1	1	19	32	0	0	0	0	0	stim001_stimuli_original_animals_birds_1.png	A	0	0	0	64.7437979755923	64.9437994870823
20089.5	100	69	1	1	19	33	4	2	0	0	0	stim005_stimuli_original_animals_fish_1.png	C	0	0	0	65.1437980730552	65.3438393257093
20189.5	100	70	1	1	19	34	9	13	0	0	0	stim010_stimuli_original_vehicles_boats_2.png	U	0	0	0	65.5438425438479	65.7438552707899
20289.5	100	71	1	1	19	35	7	11	0	0	0	stim008_stimuli_original_animals_fish_4.png	R	0	0	0	65.9438543443102	66.1438609759789
21089.5	100	72	2	0	46	0	2	6	0	0	0	stim003_stimuli_original_animals_birds_3.png	G	0	0	0	69.1439197340515	69.343949283706
21189.5	100	73	2	0	46	1	7	8	0	0	0	stim008_stimuli_original_animals_fish_4.png	K	0	0	0	69.543948601	69.7439315831289
21289.5	100	74	2	0	46	2	13	14	0	0	0	stim014_stimuli_original_vehicles_planes_2.png	V	0	0	0	69.9439594261348	70.1439475282095
21389.5	100	75	2	0	46	3	1	1	0	0	0	stim002_stimuli_original_animals_birds_2.png	B	0	0	0	70.3439748836681	70.5439590848982
21489.5	100	76	2	0	46	4	4	3	0	0	0	stim005_stimuli_original_animals_fish_1.png	D	0	0	0	70.7439644974656	70.9439886834007
21589.5	100	77	2	0	46	5	12	11	0	0	0	stim013_stimuli_original_vehicles_planes_1.png	R	0	0	0	71.143978492124	71.3439782969654
21689.5	100	78	2	0	46	6	9	12	0	0	0	stim010_stimuli_original_vehicles_boats_2.png	T	0	0	0	71.5439822466578	71.7440066763666
21789.5	100	79	2	0	46	7	10	0	0	0	0	stim011_stimuli_original_vehicles_boats_3.png	A	0	0	0	71.9440123327076	72.1440211588051
21889.5	100	80	2	0	46	8	14	5	0	0	0	stim015_stimuli_original_vehicles_planes_3.png	F	0	0	0	72.3440304722171	72.54401126015
21989.5	100	81	2	0	46	9	11	15	0	0	0	stim012_stimuli_original_vehicles_boats_4.png	Y	0	0	0	72.7440347145312	72.9440174528863
22089.5	100	82	2	0	46	10	15	13	1	0	0	stim016_stimuli_original_vehicles_planes_4.png	U	0	0	0	73.1440421263687	73.3440399807878
22189.5	100	83	2	0	46	11	3	11	0	1	0	stim004_stimuli_original_animals_birds_4.png	R	d	73.5366311485413	0	73.5440539265983	73.7440586078446
22289.5	100	84	2	0	46	12	15	4	1	0	1	stim016_stimuli_original_vehicles_planes_4.png	E	0	0	0	73.9440486603417	74.144072602503
22389.5	100	85	2	0	46	13	0	11	0	1	0	stim001_stimuli_original_animals_birds_1.png	R	0	0	0	74.3440580226015	74.5440607534256
22489.5	100	86	2	0	46	14	5	2	0	0	0	stim006_stimuli_original_animals_fish_2.png	C	0	0	0	74.744087621104	74.9441132699139
22589.5	100	87	2	0	46	15	8	7	0	0	0	stim009_stimuli_original_vehicles_boats_1.png	J	0	0	0	75.1440845490433	75.3440763084218
22689.5	100	88	2	0	46	16	15	9	0	0	0	stim016_stimuli_original_vehicles_planes_4.png	L	0	0	0	75.5441107342485	75.7441137088463
22789.5	100	89	2	0	46	17	6	10	0	0	0	stim007_stimuli_original_animals_fish_3.png	Q	0	0	0	75.9440996164922	76.1441099052317
22889.5	100	90	2	0	46	18	10	6	0	0	0	stim011_stimuli_original_vehicles_boats_3.png	G	0	0	0	76.3443725367542	76.544122437248
22989.5	100	91	2	0	46	19	9	15	0	0	0	stim010_stimuli_original_vehicles_boats_2.png	Y	0	0	0	76.7441044440493	76.9441105879378
23089.5	100	92	2	0	46	20	7	8	0	0	0	stim008_stimuli_original_animals_fish_4.png	K	0	0	0	77.1441523281392	77.3441318969708
23189.5	100	93	2	0	46	21	2	5	0	0	0	stim003_stimuli_original_animals_birds_3.png	F	0	0	0	77.5441597399767	77.7441700287163
23289.5	100	94	2	0	46	22	11	0	1	0	0	stim012_stimuli_original_vehicles_boats_4.png	A	0	0	0	77.9441578870174	78.1441798787564
23389.5	100	95	2	0	46	23	4	15	0	1	0	stim005_stimuli_original_animals_fish_1.png	Y	0	0	0	78.3441884608474	78.5441682732198
23489.5	100	96	2	0	46	24	11	3	1	0	1	stim012_stimuli_original_vehicles_boats_4.png	D	0	0	0	78.7441692973953	78.9441722717602
23589.5	100	97	2	0	46	25	13	15	0	1	0	stim014_stimuli_original_vehicles_planes_2.png	Y	0	0	0	79.1441769530065	79.344211622607
23689.5	100	98	2	0	46	26	15	11	0	0	0	stim016_stimuli_original_vehicles_planes_4.png	R	0	0	0	79.5442241057754	79.7442183031235
23789.5	100	99	2	0	46	27	5	14	0	0	0	stim006_stimuli_original_animals_fish_2.png	V	d	80.1360395692755	1	79.9442295669578	80.1442127928603
23889.5	100	100	2	0	46	28	0	10	0	0	0	stim001_stimuli_original_animals_birds_1.png	Q	0	0	0	80.3442340530455	80.5442492179573
23989.5	100	101	2	0	46	29	12	9	0	0	0	stim013_stimuli_original_vehicles_planes_1.png	L	0	0	0	80.744242927758	80.9442446832545
24089.5	100	102	2	0	46	30	11	12	0	0	0	stim012_stimuli_original_vehicles_boats_4.png	T	0	0	0	81.1442554595415	81.3442477064673
24189.5	100	103	2	0	46	31	3	4	0	0	0	stim004_stimuli_original_animals_birds_4.png	E	0	0	0	81.5442582389805	81.7446766647045
24289.5	100	104	2	0	46	32	1	1	0	0	0	stim002_stimuli_original_animals_birds_2.png	B	0	0	0	81.9442676012404	82.1442703320645
24389.5	100	105	2	0	46	33	14	13	0	0	0	stim015_stimuli_original_vehicles_planes_3.png	U	0	0	0	82.3442840341013	82.5442884713411
24489.5	100	106	2	0	46	34	8	7	0	0	0	stim009_stimuli_original_vehicles_boats_1.png	J	0	0	0	82.7442946154624	82.9442980773747
24589.5	100	107	2	0	46	35	6	2	0	0	0	stim007_stimuli_original_animals_fish_3.png	C	0	0	0	83.1443047090434	83.3443108531646
25239.5	100	108	3	1	44	0	13	13	0	0	0	stim014_stimuli_original_vehicles_planes_2.png	U	0	0	0	85.7443609314505	85.9443597611971
25339.5	100	109	3	1	44	1	8	9	0	0	0	stim009_stimuli_original_vehicles_boats_1.png	L	0	0	0	86.1443707814906	86.3443917979021
25439.5	100	110	3	1	44	2	14	15	0	0	0	stim015_stimuli_original_vehicles_planes_3.png	Y	0	0	0	86.5443789246492	86.7443728782237
25539.5	100	111	3	1	44	3	2	12	0	0	0	stim003_stimuli_original_animals_birds_3.png	T	0	0	0	86.9443931630813	87.1443788271863
25639.5	100	112	3	1	44	4	11	5	0	0	0	stim012_stimuli_original_vehicles_boats_4.png	F	0	0	0	87.3444100834895	87.5444054999389
25739.5	100	113	3	1	44	5	1	2	0	0	0	stim002_stimuli_original_animals_birds_2.png	C	0	0	0	87.7444294421002	87.9444338793401
25839.5	100	114	3	1	44	6	7	8	0	1	0	stim008_stimuli_original_animals_fish_4.png	K	0	0	0	88.1444214938674	88.3444451920222
25939.75	100	115	3	1	44	7	4	3	0	0	0	stim005_stimuli_original_animals_fish_1.png	D	0	0	0	88.5448477701284	88.7444606495555
26039.5	100	116	3	1	44	8	6	8	0	1	1	stim007_stimuli_original_animals_fish_3.png	K	0	0	0	88.9444609421771	89.1444478251506
26139.5	100	117	3	1	44	9	7	6	1	0	0	stim008_stimuli_original_animals_fish_4.png	G	d	89.3371277395636	1	89.3444544568192	89.5444735228084
26239.5	100	118	3	1	44	10	15	1	0	0	0	stim016_stimuli_original_vehicles_planes_4.png	B	0	0	0	89.7444901505951	89.9444826412946
26339.5	100	119	3	1	44	11	7	4	1	0	0	stim008_stimuli_original_animals_fish_4.png	E	0	0	0	90.1444765946362	90.3444946852978
26439.5	100	120	3	1	44	12	10	11	0	0	0	stim011_stimuli_original_vehicles_boats_3.png	R	0	0	0	90.5445035113953	90.7445123372599
26539.5	100	121	3	1	44	13	12	0	0	0	0	stim013_stimuli_original_vehicles_planes_1.png	A	0	0	0	90.9444945878349	91.1444943929091
26639.5	100	122	3	1	44	14	5	8	0	0	0	stim006_stimuli_original_animals_fish_2.png	K	0	0	0	91.3445041938685	91.5445071684662
26739.5	100	123	3	1	44	15	3	10	0	0	0	stim004_stimuli_original_animals_birds_4.png	Q	0	0	0	91.7445111181587	91.9445128736552
26839.5	100	124	3	1	44	16	0	7	0	0	0	stim001_stimuli_original_animals_birds_1.png	J	0	0	0	92.1445268194657	92.3445300378371
26939.5	100	125	3	1	44	17	9	14	0	0	0	stim010_stimuli_original_vehicles_boats_2.png	V	0	0	0	92.5445488598198	92.7445403751917
27039.5	100	126	3	1	44	18	14	9	0	0	0	stim015_stimuli_original_vehicles_planes_3.png	L	0	0	0	92.9445477384143	93.1445497374516
27139.5	100	127	3	1	44	19	7	0	0	0	0	stim008_stimuli_original_animals_fish_4.png	A	0	0	0	93.34456222062	93.5445590999443
27239.5	100	128	3	1	44	20	10	3	0	0	0	stim011_stimuli_original_vehicles_boats_3.png	D	0	0	0	93.7445981581695	93.944835921051
27339.5	100	129	3	1	44	21	8	5	0	0	0	stim009_stimuli_original_vehicles_boats_1.png	F	0	0	0	94.1446050822269	94.3446014740039
27439.5	100	130	3	1	44	22	0	12	0	0	0	stim001_stimuli_original_animals_birds_1.png	T	0	0	0	94.5446098123211	94.7446140057873
27539.75	100	131	3	1	44	23	11	10	0	0	0	stim012_stimuli_original_vehicles_boats_4.png	Q	0	0	0	94.9446242945269	95.1445950861089
27639.5	100	132	3	1	44	24	4	7	0	1	0	stim005_stimuli_original_animals_fish_1.png	J	0	0	0	95.3446092759259	95.5446083494462
27739.75	100	133	3	1	44	25	1	15	0	0	0	stim002_stimuli_original_animals_birds_2.png	Y	d	95.9364093793556	0	95.7446444819216	95.9446420925669
27839.75	100	134	3	1	44	26	6	7	0	1	1	stim007_stimuli_original_animals_fish_3.png	J	0	0	0	96.1446348270401	96.3446356072091
27939.75	100	135	3	1	44	27	8	6	1	0	0	stim009_stimuli_original_vehicles_boats_1.png	G	0	0	0	96.5446700330358	96.7446517962962
28039.75	100	136	3	1	44	28	3	4	0	0	0	stim004_stimuli_original_animals_birds_4.png	E	d	96.9372658820357	1	96.9446740315761	97.1446767621674
28139.75	100	137	3	1	44	29	8	7	1	0	0	stim009_stimuli_original_vehicles_boats_1.png	J	0	0	0	97.3446824187413	97.5446924637072
28239.75	100	138	3	1	44	30	2	1	0	0	0	stim003_stimuli_original_animals_birds_3.png	B	0	0	0	97.7446949505247	97.9447010944132
28339.75	100	139	3	1	44	31	5	11	0	0	0	stim006_stimuli_original_animals_fish_2.png	R	d	98.3364506806247	1	98.144686270738	98.3446860758122
28439.75	100	140	3	1	44	32	12	2	0	0	0	stim013_stimuli_original_vehicles_planes_1.png	C	0	0	0	98.5447131874971	98.7447215255816
28539.75	100	141	3	1	44	33	15	14	0	0	0	stim016_stimuli_original_vehicles_planes_4.png	V	0	0	0	98.9447332771961	99.1447338135913
28639.75	100	142	3	1	44	34	9	8	0	0	0	stim010_stimuli_original_vehicles_boats_2.png	K	0	0	0	99.3447421519086	99.5447429320775
28739.75	100	143	3	1	44	35	13	13	0	0	0	stim014_stimuli_original_vehicles_planes_2.png	U	0	0	0	99.7447466379963	99.9447349840775
29510.5	100	144	4	0	32	0	2	2	0	0	0	stim003_stimuli_original_animals_birds_3.png	C	0	0	0	102.828150919871	103.028148530517
29610.5	100	145	4	0	32	1	15	4	0	0	0	stim016_stimuli_original_vehicles_planes_4.png	E	0	0	0	103.228175398428	103.428184955847
29710.5	100	146	4	0	32	2	6	3	0	0	0	stim007_stimuli_original_animals_fish_3.png	D	0	0	0	103.628190368414	103.828168717911
29810.5	100	147	4	0	32	3	9	15	0	0	0	stim010_stimuli_original_vehicles_boats_2.png	Y	0	0	0	104.028180225752	104.22817734885
29910.5	100	148	4	0	32	4	14	0	0	0	0	stim015_stimuli_original_vehicles_planes_3.png	A	0	0	0	104.428191050887	104.628195732133
30010.5	100	149	4	0	32	5	13	11	1	0	0	stim014_stimuli_original_vehicles_planes_2.png	R	0	0	0	104.828218698967	105.028224355308
30110.5	100	150	4	0	32	6	4	12	0	0	0	stim005_stimuli_original_animals_fish_1.png	T	0	0	0	105.228251466993	105.428234936669
30210.5	100	151	4	0	32	7	13	1	1	0	1	stim014_stimuli_original_vehicles_planes_2.png	B	0	0	0	105.628240593011	105.828229670413
30310.5	100	152	4	0	32	8	5	7	0	0	0	stim006_stimuli_original_animals_fish_2.png	J	d	106.02088032756	1	106.028227768606	106.228234156501
30410.5	100	153	4	0	32	9	10	10	0	0	0	stim011_stimuli_original_vehicles_boats_3.png	Q	0	0	0	106.428267607233	106.628282528371
30510.5	100	154	4	0	32	10	8	3	0	1	0	stim009_stimuli_original_vehicles_boats_1.png	D	0	0	0	106.828279163688	107.02824337245
30610.5	100	155	4	0	32	11	0	9	0	0	0	stim001_stimuli_original_animals_birds_1.png	L	0	0	0	107.22828438133	107.42828881857
30710.5	100	156	4	0	32	12	3	3	0	1	0	stim004_stimuli_original_animals_birds_4.png	D	0	0	0	107.628277895972	107.828280626563
30810.5	100	157	4	0	32	13	13	13	0	0	0	stim014_stimuli_original_vehicles_planes_2.png	U	0	0	0	108.028289939975	108.228306811769
30910.5	100	158	4	0	32	14	12	6	0	0	0	stim013_stimuli_original_vehicles_planes_1.png	G	0	0	0	108.42831905093	108.628325926373
31010.5	100	159	4	0	32	15	7	14	0	0	0	stim008_stimuli_original_animals_fish_4.png	V	0	0	0	108.828309883596	109.028312858194
31110.5	100	160	4	0	32	16	1	8	0	0	0	stim002_stimuli_original_animals_birds_2.png	K	0	0	0	109.228340944974	109.428340262268
31210.5	100	161	4	0	32	17	11	5	0	0	0	stim012_stimuli_original_vehicles_boats_4.png	F	0	0	0	109.628347381484	109.82834913698
31310.5	100	162	4	0	32	18	5	11	0	0	0	stim006_stimuli_original_animals_fish_2.png	R	0	0	0	110.02836235147	110.228362156544
31410.5	100	163	4	0	32	19	8	1	0	0	0	stim009_stimuli_original_vehicles_boats_1.png	B	0	0	0	110.428373176605	110.628375663422
31510.5	100	164	4	0	32	20	14	7	0	0	0	stim015_stimuli_original_vehicles_planes_3.png	J	0	0	0	110.82837815024	111.028364058118
31610.5	100	165	4	0	32	21	6	12	0	0	0	stim007_stimuli_original_animals_fish_3.png	T	0	0	0	111.228392144898	111.428394387942
31710.5	100	166	4	0	32	22	13	13	0	0	0	stim014_stimuli_original_vehicles_planes_2.png	U	0	0	0	111.628377126297	111.82837815024
31810.75	100	167	4	0	32	23	3	3	1	0	0	stim004_stimuli_original_animals_birds_4.png	D	d	112.035786592634	0	112.028857040918	112.228430423187
31910.5	100	168	4	0	32	24	9	0	0	0	0	stim010_stimuli_original_vehicles_boats_2.png	A	0	0	0	112.428421938559	112.628397606313
32010.5	100	169	4	0	32	25	3	8	1	0	1	stim004_stimuli_original_animals_birds_4.png	K	0	0	0	112.828433251241	113.028420378221
32110.5	100	170	4	0	32	26	10	10	0	0	0	stim011_stimuli_original_vehicles_boats_3.png	Q	0	0	0	113.228448952548	113.42844631942
32210.5	100	171	4	0	32	27	7	5	0	0	0	stim008_stimuli_original_animals_fish_4.png	F	0	0	0	113.62842466915	113.828454218805
32310.5	100	172	4	0	32	28	1	13	0	1	0	stim002_stimuli_original_animals_birds_2.png	U	0	0	0	114.028448416153	114.228467725916
32410.5	100	173	4	0	32	29	12	4	0	0	0	stim013_stimuli_original_vehicles_planes_1.png	E	0	0	0	114.42847655178	114.628481233027
32510.5	100	174	4	0	32	30	11	13	0	1	0	stim012_stimuli_original_vehicles_boats_4.png	U	0	0	0	114.828488108469	115.028473772341
32610.5	100	175	4	0	32	31	0	14	0	0	0	stim001_stimuli_original_animals_birds_1.png	V	0	0	0	115.2285011278	115.428498007124
32710.5	100	176	4	0	32	32	15	9	0	0	0	stim016_stimuli_original_vehicles_planes_4.png	L	0	0	0	115.628506101435	115.828510295134
32810.5	100	177	4	0	32	33	3	6	0	0	0	stim004_stimuli_original_animals_birds_4.png	G	d	116.021101462655	0	116.028535943711	116.228525508661
32910.5	100	178	4	0	32	34	4	15	0	0	0	stim005_stimuli_original_animals_fish_1.png	Y	0	0	0	116.428530189907	116.6285341396
33010.5	100	179	4	0	32	35	2	2	0	0	0	stim003_stimuli_original_animals_birds_3.png	C	0	0	0	116.828515171306	117.028524728492
33764.75	100	180	5	1	13	0	7	13	0	0	0	stim008_stimuli_original_animals_fish_4.png	U	0	0	0	119.845270974562	120.045294916723
33864.75	100	181	5	1	13	1	6	8	0	0	0	stim007_stimuli_original_animals_fish_3.png	K	0	0	0	120.245300085517	120.445299402811
33964.75	100	182	5	1	13	2	11	11	0	0	0	stim012_stimuli_original_vehicles_boats_4.png	R	0	0	0	120.645295063034	120.845292429905
34064.75	100	183	5	1	13	3	9	2	0	0	0	stim010_stimuli_original_vehicles_boats_2.png	C	0	0	0	121.045318566263	121.245323491283
34164.75	100	184	5	1	13	4	14	1	0	0	0	stim015_stimuli_original_vehicles_planes_3.png	B	0	0	0	121.445320614148	121.64531505527
34264.75	100	185	5	1	13	5	10	5	1	1	0	stim011_stimuli_original_vehicles_boats_3.png	F	0	0	0	121.845300475601	122.045358794741
34364.75	100	186	5	1	13	6	2	10	0	0	0	stim003_stimuli_original_animals_birds_3.png	Q	0	0	0	122.245351041667	122.445354016032
34464.75	100	187	5	1	13	7	10	5	1	1	1	stim011_stimuli_original_vehicles_boats_3.png	F	0	0	0	122.645362354349	122.84536801069
34564.75	100	188	5	1	13	8	12	15	0	0	0	stim013_stimuli_original_vehicles_planes_1.png	Y	0	0	0	123.045370253734	123.245356893167
34664.75	100	189	5	1	13	9	13	9	0	0	0	stim014_stimuli_original_vehicles_planes_2.png	L	0	0	0	123.445361817954	123.645361623028
34764.75	100	190	5	1	13	10	3	5	0	0	0	stim004_stimuli_original_animals_birds_4.png	F	0	0	0	123.845380445011	124.045377568109
34864.75	100	191	5	1	13	11	4	14	0	0	0	stim005_stimuli_original_animals_fish_1.png	V	d	124.437170064775	1	124.24540394824	124.445381566649
34964.75	100	192	5	1	13	12	10	0	0	0	0	stim011_stimuli_original_vehicles_boats_3.png	A	0	0	0	124.645417699125	124.845589633565
35064.75	100	193	5	1	13	13	1	7	0	0	0	stim002_stimuli_original_animals_birds_2.png	J	0	0	0	125.045406825142	125.24542515981
35164.75	100	194	5	1	13	14	15	6	0	0	0	stim016_stimuli_original_vehicles_planes_4.png	G	0	0	0	125.445413749432	125.645434765844
35264.75	100	195	5	1	13	15	0	3	0	0	0	stim001_stimuli_original_animals_birds_1.png	D	0	0	0	125.845448711654	126.045428280486
35364.75	100	196	5	1	13	16	5	12	0	0	0	stim006_stimuli_original_animals_fish_2.png	T	0	0	0	126.245436375029	126.445463730255
35464.75	100	197	5	1	13	17	8	4	0	0	0	stim009_stimuli_original_vehicles_boats_1.png	E	0	0	0	126.645440861117	126.845474311616
35564.75	100	198	5	1	13	18	4	8	0	0	0	stim005_stimuli_original_animals_fish_1.png	K	0	0	0	127.045476067113	127.245478310157
35664.75	100	199	5	1	13	19	12	5	0	0	0	stim013_stimuli_original_vehicles_planes_1.png	F	0	0	0	127.445474457927	127.645477432525
35764.75	100	200	5	1	13	20	3	0	0	0	0	stim004_stimuli_original_animals_birds_4.png	A	0	0	0	127.84549869271	128.045483625261
35864.75	100	201	5	1	13	21	6	15	0	0	0	stim007_stimuli_original_animals_fish_3.png	Y	0	0	0	128.245508542517	128.445494937943
35964.75	100	202	5	1	13	22	7	1	0	0	0	stim008_stimuli_original_animals_fish_4.png	B	0	0	0	128.645526682027	128.845512102125
36064.75	100	203	5	1	13	23	0	10	0	0	0	stim001_stimuli_original_animals_birds_1.png	Q	0	0	0	129.045528486138	129.245534630259
36164.75	100	204	5	1	13	24	14	4	0	0	0	stim015_stimuli_original_vehicles_planes_3.png	E	0	0	0	129.445540774148	129.64554106677
36264.75	100	205	5	1	13	25	5	3	0	0	0	stim006_stimuli_original_animals_fish_2.png	D	0	0	0	129.845528925071	130.045528973686
36364.75	100	206	5	1	13	26	9	13	0	0	0	stim010_stimuli_original_vehicles_boats_2.png	U	0	0	0	130.245566081489	130.445539555047
36464.75	100	207	5	1	13	27	15	12	0	0	0	stim016_stimuli_original_vehicles_planes_4.png	T	0	0	0	130.645550819114	130.845555256354
36564.75	100	208	5	1	13	28	5	10	1	1	0	stim006_stimuli_original_animals_fish_2.png	Q	0	0	0	131.045558718499	131.24556437484
36664.75	100	209	5	1	13	29	10	2	0	0	0	stim011_stimuli_original_vehicles_boats_3.png	C	0	0	0	131.445569543634	131.645573249552
36764.75	100	210	5	1	13	30	5	10	1	1	1	stim006_stimuli_original_animals_fish_2.png	Q	0	0	0	131.845582806971	132.045592364157
36864.75	100	211	5	1	13	31	1	14	0	0	0	stim002_stimuli_original_animals_birds_2.png	V	d	132.252773576183	1	132.245591193903	132.445594412275
36964.75	100	212	5	1	13	32	2	9	0	0	0	stim003_stimuli_original_animals_birds_3.png	L	0	0	0	132.645616891561	132.845608406933
37064.75	100	213	5	1	13	33	11	11	0	0	0	stim012_stimuli_original_vehicles_boats_4.png	R	0	0	0	133.045605286025	133.245621670038
37164.75	100	214	5	1	13	34	8	6	0	0	0	stim009_stimuli_original_vehicles_boats_1.png	G	0	0	0	133.445630008355	133.64564834279
37264.75	100	215	5	1	13	35	13	7	0	0	0	stim014_stimuli_original_vehicles_planes_2.png	J	0	0	0	133.845659850631	134.045681598596
37977.25	100	216	6	0	22	0	9	14	0	0	0	stim010_stimuli_original_vehicles_boats_2.png	V	d	136.68844957673	0	136.695702907396	136.89570807619
38077.25	100	217	6	0	22	1	3	11	0	0	0	stim004_stimuli_original_animals_birds_4.png	R	0	0	0	137.095718608703	137.295747670811
38177.25	100	218	6	0	22	2	15	1	0	0	0	stim016_stimuli_original_vehicles_planes_4.png	B	0	0	0	137.495740649058	137.695730701787
38277.5	100	219	6	0	22	3	5	8	0	0	0	stim006_stimuli_original_animals_fish_2.png	K	0	0	0	137.895753424847	138.095775416354
38377.5	100	220	6	0	22	4	0	7	1	0	0	stim001_stimuli_original_animals_birds_1.png	J	0	0	0	138.295780585147	138.495749913855
38477.25	100	221	6	0	22	5	14	5	0	0	0	stim015_stimuli_original_vehicles_planes_3.png	F	0	0	0	138.695761421695	138.895749767544
38577.5	100	222	6	0	22	6	0	3	1	1	1	stim001_stimuli_original_animals_birds_1.png	D	0	0	0	139.095774441026	139.295772295678
38677.5	100	223	6	0	22	7	6	6	0	0	0	stim007_stimuli_original_animals_fish_3.png	G	0	0	0	139.495779414894	139.69578653411
38777.5	100	224	6	0	22	8	12	3	0	1	0	stim013_stimuli_original_vehicles_planes_1.png	D	d	140.087553430814	1	139.895790483803	140.095796383917
38877.5	100	225	6	0	22	9	10	4	0	0	0	stim011_stimuli_original_vehicles_boats_3.png	E	0	0	0	140.29580082139	140.495801113779
38977.5	100	226	6	0	22	10	1	10	0	0	0	stim002_stimuli_original_animals_birds_2.png	Q	0	0	0	140.695805307478	140.895802674349
39077.5	100	227	6	0	22	11	2	13	0	0	0	stim003_stimuli_original_animals_birds_3.png	U	0	0	0	141.09583149245	141.295826908899
39177.5	100	228	6	0	22	12	0	9	0	0	0	stim001_stimuli_original_animals_birds_1.png	L	0	0	0	141.495836222311	141.695833589183
39277.5	100	229	6	0	22	13	8	0	0	0	0	stim009_stimuli_original_vehicles_boats_1.png	A	0	0	0	141.895846072352	142.095844658324
39377.5	100	230	6	0	22	14	4	12	0	0	0	stim005_stimuli_original_animals_fish_1.png	T	0	0	0	142.295843244065	142.495846218662
39477.5	100	231	6	0	22	15	11	15	0	0	0	stim012_stimuli_original_vehicles_boats_4.png	Y	0	0	0	142.696287318598	142.895886544604
39577.5	100	232	6	0	22	16	7	3	0	0	0	stim008_stimuli_original_animals_fish_4.png	D	0	0	0	143.095887324773	143.29589566309
39677.5	100	233	6	0	22	17	13	2	0	0	0	stim014_stimuli_original_vehicles_planes_2.png	C	0	0	0	143.495912534883	143.695904781576
39777.5	100	234	6	0	22	18	2	13	0	0	0	stim003_stimuli_original_animals_birds_3.png	U	0	0	0	143.8959075124	144.095928772585
39877.5	100	235	6	0	22	19	3	7	0	0	0	stim004_stimuli_original_animals_birds_4.png	J	0	0	0	144.295936135575	144.495924725197
39977.5	100	236	6	0	22	20	15	11	0	0	0	stim016_stimuli_original_vehicles_planes_4.png	R	0	0	0	144.695945741609	144.895921165589
40077.5	100	237	6	0	22	21	12	4	0	0	0	stim013_stimuli_original_vehicles_planes_1.png	E	d	145.287693913793	0	145.095928772585	145.295932234498
40177.5	100	238	6	0	22	22	0	8	0	0	0	stim001_stimuli_original_animals_birds_1.png	K	0	0	0	145.495941791916	145.695931844413
40277.5	100	239	6	0	22	23	9	0	0	0	0	stim010_stimuli_original_vehicles_boats_2.png	A	0	0	0	145.895938232308	146.095943157328
40377.5	100	240	6	0	22	24	13	2	0	0	0	stim014_stimuli_original_vehicles_planes_2.png	C	0	0	0	146.295991967898	146.495995673817
40477.5	100	241	6	0	22	25	10	1	0	0	0	stim011_stimuli_original_vehicles_boats_3.png	B	0	0	0	146.695989871165	146.896003329428
40577.5	100	242	6	0	22	26	4	10	0	0	0	stim005_stimuli_original_animals_fish_1.png	Q	0	0	0	147.095981435385	147.295983922202
40677.5	100	243	6	0	22	27	3	12	1	0	0	stim004_stimuli_original_animals_birds_4.png	T	0	0	0	147.496020298451	147.696005718783
40777.5	100	244	6	0	22	28	6	6	0	0	0	stim007_stimuli_original_animals_fish_3.png	G	0	0	0	147.896029660944	148.096421023831
40877.5	100	245	6	0	22	29	3	0	1	1	1	stim004_stimuli_original_animals_birds_4.png	A	0	0	0	148.296039998299	148.496020542458
40977.5	100	246	6	0	22	30	5	14	0	0	0	stim006_stimuli_original_animals_fish_2.png	V	d	148.68863365287	1	148.696027905447	148.896027222741
41077.5	100	247	6	0	22	31	7	0	0	1	0	stim008_stimuli_original_animals_fish_4.png	A	0	0	0	149.096034829505	149.296070474433
41177.5	100	248	6	0	22	32	8	5	0	0	0	stim009_stimuli_original_vehicles_boats_1.png	F	0	0	0	149.496075155679	149.696057406254
41277.5	100	249	6	0	22	33	1	15	0	0	0	stim002_stimuli_original_animals_birds_2.png	Y	0	0	0	149.89606452547	150.096058235271
41377.5	100	250	6	0	22	34	11	3	0	0	0	stim012_stimuli_original_vehicles_boats_4.png	D	0	0	0	150.296076325933	150.496103193844
41477.5	100	251	6	0	22	35	14	9	0	0	0	stim015_stimuli_original_vehicles_planes_3.png	L	0	0	0	150.696088857716	150.896108167479
42348.25	100	252	7	1	47	0	7	6	0	0	0	stim008_stimuli_original_animals_fish_4.png	G	0	0	0	154.179498601006	154.379525224911
42448.25	100	253	7	1	47	1	8	10	0	0	0	stim009_stimuli_original_vehicles_boats_1.png	Q	0	0	0	154.5795442909	154.77951313206
42548.25	100	254	7	1	47	2	2	15	0	0	0	stim003_stimuli_original_animals_birds_3.png	Y	0	0	0	154.979518056847	155.179518837249
42648.25	100	255	7	1	47	3	9	13	0	0	0	stim010_stimuli_original_vehicles_boats_2.png	U	0	0	0	155.37952741934	155.579528687056
42748.25	100	256	7	1	47	4	15	2	0	0	0	stim016_stimuli_original_vehicles_planes_4.png	C	0	0	0	155.779563356657	155.979969348293
42848.25	100	257	7	1	47	5	4	9	0	1	0	stim005_stimuli_original_animals_fish_1.png	L	0	0	0	156.179585153237	156.379583251663
42948.25	100	258	7	1	47	6	5	12	0	0	0	stim006_stimuli_original_animals_fish_2.png	T	0	0	0	156.57958866423	156.779592857696
43048.25	100	259	7	1	47	7	7	9	1	1	1	stim008_stimuli_original_animals_fish_4.png	L	0	0	0	156.979598757811	157.179605145706
43148.25	100	260	7	1	47	8	11	3	0	0	0	stim012_stimuli_original_vehicles_boats_4.png	D	d	157.586778604425	1	157.379584714537	157.579615727067
43248.25	100	261	7	1	47	9	7	14	1	0	0	stim008_stimuli_original_animals_fish_4.png	V	0	0	0	157.779632598627	157.979600220686
43348.25	100	262	7	1	47	10	10	1	0	0	0	stim011_stimuli_original_vehicles_boats_3.png	B	0	0	0	158.179637328489	158.379625430563
43448.25	100	263	7	1	47	11	1	7	0	0	0	stim002_stimuli_original_animals_birds_2.png	J	0	0	0	158.579645959428	158.779644789174
43548.25	100	264	7	1	47	12	14	9	0	0	0	stim015_stimuli_original_vehicles_planes_3.png	L	0	0	0	158.979653371265	159.179656589404
43648.25	100	265	7	1	47	13	3	0	0	0	0	stim004_stimuli_original_animals_birds_4.png	A	d	159.571403250098	0	159.379639571533	159.579638157506
43748.25	100	266	7	1	47	14	13	5	0	0	0	stim014_stimuli_original_vehicles_planes_2.png	F	0	0	0	159.779645276722	159.979657028336
43848.25	100	267	7	1	47	15	6	11	0	0	0	stim007_stimuli_original_animals_fish_3.png	R	0	0	0	160.179654882755	160.379657125799
43948.25	100	268	7	1	47	16	0	8	0	0	0	stim001_stimuli_original_animals_birds_1.png	K	0	0	0	160.579667414539	160.77967063291
44048.25	100	269	7	1	47	17	12	4	0	0	0	stim013_stimuli_original_vehicles_planes_1.png	E	0	0	0	160.979681409197	161.179695111467
44148.25	100	270	7	1	47	18	4	12	0	0	0	stim005_stimuli_original_animals_fish_1.png	T	0	0	0	161.379723929567	161.579703498399
44248.25	100	271	7	1	47	19	8	0	0	0	0	stim009_stimuli_original_vehicles_boats_1.png	A	0	0	0	161.77971208049	161.979734072229
44348.25	100	272	7	1	47	20	11	6	0	0	0	stim012_stimuli_original_vehicles_boats_4.png	G	0	0	0	162.179738997016	162.379727099091
44448.25	100	273	7	1	47	21	5	13	0	0	0	stim006_stimuli_original_animals_fish_2.png	U	0	0	0	162.579747627955	162.779754503397
44548.25	100	274	7	1	47	22	0	3	0	0	0	stim001_stimuli_original_animals_birds_1.png	D	0	0	0	162.979763573036	163.179747286486
44648.25	100	275	7	1	47	23	9	14	0	0	0	stim010_stimuli_original_vehicles_boats_2.png	V	0	0	0	163.379772203974	163.579747384181
44748.25	100	276	7	1	47	24	7	1	0	0	0	stim008_stimuli_original_animals_fish_4.png	B	0	0	0	163.779791318579	163.979768205434
44848.25	100	277	7	1	47	25	1	10	0	0	0	stim002_stimuli_original_animals_birds_2.png	Q	0	0	0	164.179797023768	164.379793659085
44948.25	100	278	7	1	47	26	14	7	0	1	0	stim015_stimuli_original_vehicles_planes_3.png	J	0	0	0	164.579770058393	164.779808872845
45048.25	100	279	7	1	47	27	3	11	0	0	0	stim004_stimuli_original_animals_birds_4.png	R	0	0	0	164.979813797865	165.179824817926
45148.25	100	280	7	1	47	28	9	7	1	1	1	stim010_stimuli_original_vehicles_boats_2.png	J	0	0	0	165.37979804771	165.579825646942
45248.25	100	281	7	1	47	29	12	5	0	0	0	stim013_stimuli_original_vehicles_planes_1.png	F	d	165.971589130349	1	165.779821063392	165.979806971038
45348.25	100	282	7	1	47	30	9	4	1	0	0	stim010_stimuli_original_vehicles_boats_2.png	E	0	0	0	166.179845541716	166.379832668696
45448.5	100	283	7	1	47	31	2	15	0	0	0	stim003_stimuli_original_animals_birds_3.png	Y	0	0	0	166.580054340186	166.77984885755
45548.5	100	284	7	1	47	32	13	9	0	0	0	stim014_stimuli_original_vehicles_planes_2.png	L	0	0	0	166.979871336836	167.179871629458
45648.5	100	285	7	1	47	33	15	2	0	0	0	stim016_stimuli_original_vehicles_planes_4.png	C	0	0	0	167.379875335377	167.579879041295
45748.5	100	286	7	1	47	34	10	8	0	0	0	stim011_stimuli_original_vehicles_boats_3.png	K	0	0	0	167.779894449981	167.979894254822
45848.5	100	287	7	1	47	35	6	7	0	0	0	stim007_stimuli_original_animals_fish_3.png	J	0	0	0	168.179898692295	168.37990459241
46590	100	288	8	0	4	0	14	6	0	0	0	stim015_stimuli_original_vehicles_planes_3.png	G	0	0	0	171.146606513998	171.346617777832
46690	100	289	8	0	4	1	1	13	0	0	0	stim002_stimuli_original_animals_birds_2.png	U	0	0	0	171.546634405851	171.746644450584
46790	100	290	8	0	4	2	3	0	0	0	0	stim004_stimuli_original_animals_birds_4.png	A	0	0	0	171.946675463347	172.146650399547
46890	100	291	8	0	4	3	0	12	0	0	0	stim001_stimuli_original_animals_birds_1.png	T	0	0	0	172.346648010425	172.546646108618
46990	100	292	8	0	4	4	10	3	1	0	0	stim011_stimuli_original_vehicles_boats_3.png	D	0	0	0	172.746664930601	172.946670343168
47090	100	293	8	0	4	5	5	2	0	0	0	stim006_stimuli_original_animals_fish_2.png	C	0	0	0	173.146668929141	173.346668734215
47190	100	294	8	0	4	6	10	8	1	0	1	stim011_stimuli_original_vehicles_boats_3.png	K	0	0	0	173.546685849549	173.746714667883
47290.25	100	295	8	0	4	7	8	15	0	0	0	stim009_stimuli_original_vehicles_boats_1.png	Y	0	0	0	173.947157230694	174.146699649049
47390	100	296	8	0	4	8	2	4	0	0	0	stim003_stimuli_original_animals_birds_3.png	E	0	0	0	174.346727492288	174.546730466653
47490	100	297	8	0	4	9	15	9	0	0	0	stim016_stimuli_original_vehicles_planes_4.png	L	0	0	0	174.746722713578	174.946725931717
47590	100	298	8	0	4	10	11	7	0	0	0	stim012_stimuli_original_vehicles_boats_4.png	J	0	0	0	175.146731344284	175.346721153241
47690	100	299	8	0	4	11	13	11	0	0	0	stim014_stimuli_original_vehicles_planes_2.png	R	0	0	0	175.54675460374	175.746746850666
47790	100	300	8	0	4	12	10	4	0	1	0	stim011_stimuli_original_vehicles_boats_3.png	E	d	175.939348258311	0	175.946781276492	176.146763283527
47890	100	301	8	0	4	13	6	14	0	0	0	stim007_stimuli_original_animals_fish_3.png	V	0	0	0	176.34678576258	176.54676045524
47990	100	302	8	0	4	14	4	4	0	1	0	stim005_stimuli_original_animals_fish_1.png	E	0	0	0	176.746780008776	176.946808339329
48090	100	303	8	0	4	15	9	1	0	0	0	stim010_stimuli_original_vehicles_boats_2.png	B	0	0	0	177.146811313927	177.346811362542
48190	100	304	8	0	4	16	7	5	0	0	0	stim008_stimuli_original_animals_fish_4.png	F	0	0	0	177.54681726289	177.746804633411
48290	100	305	8	0	4	17	12	10	0	0	0	stim013_stimuli_original_vehicles_planes_1.png	Q	0	0	0	177.946827356471	178.146833988139
48390	100	306	8	0	4	18	10	12	0	0	0	stim011_stimuli_original_vehicles_boats_3.png	T	0	0	0	178.346820871113	178.546824333258
48490	100	307	8	0	4	19	5	7	0	0	0	stim006_stimuli_original_animals_fish_2.png	J	0	0	0	178.746841692599	178.946845642291
48590	100	308	8	0	4	20	1	9	0	0	0	stim002_stimuli_original_animals_birds_2.png	L	0	0	0	179.146855443483	179.347091987263
48690	100	309	8	0	4	21	4	4	1	0	0	stim005_stimuli_original_animals_fish_1.png	E	0	0	0	179.546864074189	179.746867780108
48790	100	310	8	0	4	22	14	6	0	0	0	stim015_stimuli_original_vehicles_planes_3.png	G	0	0	0	179.946873192675	180.146882262314
48890	100	311	8	0	4	23	4	10	1	0	1	stim005_stimuli_original_animals_fish_1.png	Q	0	0	0	180.346883530263	180.546888211276
48990.25	100	312	8	0	4	24	11	13	0	0	0	stim012_stimuli_original_vehicles_boats_4.png	U	0	0	0	180.746896062046	180.946909032762
49090	100	313	8	0	4	25	7	11	0	0	0	stim008_stimuli_original_animals_fish_4.png	R	0	0	0	181.146896891063	181.346883042715
49190	100	314	8	0	4	26	9	15	0	0	0	stim010_stimuli_original_vehicles_boats_2.png	Y	0	0	0	181.546904546674	181.74689338007
49290.25	100	315	8	0	4	27	4	2	0	0	0	stim005_stimuli_original_animals_fish_1.png	C	0	0	0	181.946918053553	182.146909812931
49390.25	100	316	8	0	4	28	15	8	0	0	0	stim016_stimuli_original_vehicles_planes_4.png	K	0	0	0	182.346924246522	182.546948675998
49490.25	100	317	8	0	4	29	8	10	0	1	0	stim009_stimuli_original_vehicles_boats_1.png	Q	0	0	0	182.74695555144	182.946942434646
49590.25	100	318	8	0	4	30	2	5	0	0	0	stim003_stimuli_original_animals_birds_3.png	F	0	0	0	183.146945652785	183.346942532109
49690.25	100	319	8	0	4	31	3	10	0	1	0	stim004_stimuli_original_animals_birds_4.png	Q	0	0	0	183.546948920004	183.746955063893
49790.25	100	320	8	0	4	32	12	0	0	0	0	stim013_stimuli_original_vehicles_planes_1.png	A	0	0	0	183.946957063163	184.146970033878
49890.25	100	321	8	0	4	33	0	3	0	0	0	stim001_stimuli_original_animals_birds_1.png	D	0	0	0	184.346973496024	184.546983784763
49990.25	100	322	8	0	4	34	13	1	0	0	0	stim014_stimuli_original_vehicles_planes_2.png	B	0	0	0	184.746990172425	184.947010945063
50090.25	100	323	8	0	4	35	6	14	0	0	0	stim007_stimuli_original_animals_fish_3.png	V	0	0	0	185.147015626077	185.347022013972
51777.75	100	324	9	1	43	0	2	7	0	0	0	stim003_stimuli_original_animals_birds_3.png	J	0	0	0	191.897175565129	192.09717512643
51877.75	100	325	9	1	43	1	9	13	0	0	0	stim010_stimuli_original_vehicles_boats_2.png	U	0	0	0	192.297211502679	192.497198629659
51977.75	100	326	9	1	43	2	14	10	0	0	0	stim015_stimuli_original_vehicles_planes_3.png	Q	0	0	0	192.697217695415	192.897222864209
52077.75	100	327	9	1	43	3	15	14	0	0	0	stim016_stimuli_original_vehicles_planes_4.png	V	0	0	0	193.09722608258	193.297208820703
52177.75	100	328	9	1	43	4	8	9	0	0	0	stim009_stimuli_original_vehicles_boats_1.png	L	0	0	0	193.497242271435	193.697242076276
52277.75	100	329	9	1	43	5	4	2	0	0	0	stim005_stimuli_original_animals_fish_1.png	C	0	0	0	193.897228959482	194.097224863479
52377.75	100	330	9	1	43	6	11	11	0	1	0	stim012_stimuli_original_vehicles_boats_4.png	R	0	0	0	194.297234664671	194.497238126583
52477.75	100	331	9	1	43	7	12	6	1	0	0	stim013_stimuli_original_vehicles_planes_1.png	G	0	0	0	194.697238175431	194.897243100451
52577.75	100	332	9	1	43	8	1	11	0	1	1	stim002_stimuli_original_animals_birds_2.png	R	0	0	0	195.097251682542	195.297256851336
52677.75	100	333	9	1	43	9	12	1	1	0	0	stim013_stimuli_original_vehicles_planes_1.png	B	0	0	0	195.497263726778	195.697263044072
52777.75	100	334	9	1	43	10	5	0	0	0	0	stim006_stimuli_original_animals_fish_2.png	A	d	195.889803499216	1	195.89730697847	196.097310684389
52877.75	100	335	9	1	43	11	7	3	0	0	0	stim008_stimuli_original_animals_fish_4.png	D	0	0	0	196.29731390276	196.497315170476
52977.75	100	336	9	1	43	12	3	11	0	0	0	stim004_stimuli_original_animals_birds_4.png	R	0	0	0	196.697321558371	196.897327214712
53077.75	100	337	9	1	43	13	0	12	0	0	0	stim001_stimuli_original_animals_birds_1.png	T	d	197.305885510985	1	197.097342867171	197.297337796073
53177.75	100	338	9	1	43	14	12	5	0	0	0	stim013_stimuli_original_vehicles_planes_1.png	F	0	0	0	197.497344915289	197.697333504912
53277.75	100	339	9	1	43	15	13	4	0	0	0	stim014_stimuli_original_vehicles_planes_2.png	E	0	0	0	197.897354765097	198.097359690117
53377.75	100	340	9	1	43	16	10	15	0	0	0	stim011_stimuli_original_vehicles_boats_3.png	Y	0	0	0	198.297372173052	198.497375635197
53477.75	100	341	9	1	43	17	6	8	0	0	0	stim007_stimuli_original_animals_fish_3.png	K	0	0	0	198.697376171593	198.897364761215
53577.75	100	342	9	1	43	18	8	6	0	0	0	stim009_stimuli_original_vehicles_boats_1.png	G	0	0	0	199.097387972055	199.297368515981
53677.75	100	343	9	1	43	19	15	10	0	0	0	stim016_stimuli_original_vehicles_planes_4.png	Q	0	0	0	199.497368077049	199.697379341116
53777.75	100	344	9	1	43	20	4	13	0	0	0	stim005_stimuli_original_animals_fish_1.png	U	0	0	0	199.897389386082	200.097388459602
53877.75	100	345	9	1	43	21	5	12	0	0	0	stim006_stimuli_original_animals_fish_2.png	T	0	0	0	200.297387289349	200.497399284737
53977.75	100	346	9	1	43	22	12	0	0	0	0	stim013_stimuli_original_vehicles_planes_1.png	A	0	0	0	200.697405428626	200.897401820403
54077.75	100	347	9	1	43	23	11	3	0	0	0	stim012_stimuli_original_vehicles_boats_4.png	D	0	0	0	201.097761975601	201.29743531975
54177.75	100	348	9	1	43	24	3	7	0	0	0	stim004_stimuli_original_animals_birds_4.png	J	0	0	0	201.497423665598	201.697452971479
54277.75	100	349	9	1	43	25	0	5	0	0	0	stim001_stimuli_original_animals_birds_1.png	F	0	0	0	201.897436928935	202.097440147074
54377.75	100	350	9	1	43	26	1	12	0	1	0	stim002_stimuli_original_animals_birds_2.png	T	0	0	0	202.297481399728	202.497477547498
54477.75	100	351	9	1	43	27	11	1	1	0	0	stim012_stimuli_original_vehicles_boats_4.png	B	d	202.889235423412	0	202.697468331549	202.897471793694
54577.75	100	352	9	1	43	28	6	12	0	1	1	stim007_stimuli_original_animals_fish_3.png	T	0	0	0	203.097494028974	203.297472866485
54677.75	100	353	9	1	43	29	11	11	1	0	0	stim012_stimuli_original_vehicles_boats_4.png	R	0	0	0	203.497487787623	203.697482472518
54777.75	100	354	9	1	43	30	2	4	0	0	0	stim003_stimuli_original_animals_birds_3.png	E	d	203.890049502952	1	203.897493492579	204.097492078552
54877.75	100	355	9	1	43	31	9	8	0	0	0	stim010_stimuli_original_vehicles_boats_2.png	K	0	0	0	204.297528455034	204.49752972275
54977.75	100	356	9	1	43	32	14	15	0	0	0	stim015_stimuli_original_vehicles_planes_3.png	Y	0	0	0	204.697533672443	204.897523481166
55077.75	100	357	9	1	43	33	10	14	0	0	0	stim011_stimuli_original_vehicles_boats_3.png	V	0	0	0	205.097535720561	205.29752187198
55177.75	100	358	9	1	43	34	13	9	0	0	0	stim014_stimuli_original_vehicles_planes_2.png	L	0	0	0	205.497541913297	205.697538304841
55277.75	100	359	9	1	43	35	7	2	0	0	0	stim008_stimuli_original_animals_fish_4.png	C	0	0	0	205.897545424057	206.097549129976
56419.5	100	360	10	0	20	0	10	4	0	0	0	stim011_stimuli_original_vehicles_boats_3.png	E	0	0	0	210.464341163402	210.664339993149
56519.5	100	361	10	0	20	1	12	5	0	0	0	stim013_stimuli_original_vehicles_planes_1.png	F	0	0	0	210.86434321152	211.064344479237
56619.5	100	362	10	0	20	2	3	12	0	0	0	stim004_stimuli_original_animals_birds_4.png	T	0	0	0	211.264360131929	211.464361399645
56719.5	100	363	10	0	20	3	6	11	0	0	0	stim007_stimuli_original_animals_fish_3.png	R	0	0	0	211.664365105564	211.864374175202
56819.5	100	364	10	0	20	4	7	2	1	0	0	stim008_stimuli_original_animals_fish_4.png	C	0	0	0	212.064376906026	212.264388901414
56919.5	100	365	10	0	20	5	4	8	0	0	0	stim005_stimuli_original_animals_fish_1.png	K	0	0	0	212.464407479623	212.664435566403
57019.5	100	366	10	0	20	6	7	13	1	0	1	stim008_stimuli_original_animals_fish_4.png	U	0	0	0	212.86442610668	213.064426886849
57119.5	100	367	10	0	20	7	8	0	0	1	0	stim009_stimuli_original_vehicles_boats_1.png	A	d	213.257023174549	1	213.264408162329	213.464441125281
57219.5	100	368	10	0	20	8	9	10	0	0	0	stim010_stimuli_original_vehicles_boats_2.png	Q	0	0	0	213.664433615981	213.864433664829
57319.5	100	369	10	0	20	9	1	0	0	1	0	stim002_stimuli_original_animals_birds_2.png	A	0	0	0	214.064466140233	214.264467895497
57419.5	100	370	10	0	20	10	7	1	0	0	0	stim008_stimuli_original_animals_fish_4.png	B	0	0	0	214.464472576743	214.66447140649
57519.5	100	371	10	0	20	11	14	9	0	0	0	stim015_stimuli_original_vehicles_planes_3.png	L	0	0	0	214.864468285814	215.064463945804
57619.5	100	372	10	0	20	12	0	7	0	0	0	stim001_stimuli_original_animals_birds_1.png	J	0	0	0	215.264458874706	215.46460984135
57719.5	100	373	10	0	20	13	5	15	0	0	0	stim006_stimuli_original_animals_fish_2.png	Y	0	0	0	215.664505295921	215.864509245614
57819.5	100	374	10	0	20	14	13	3	0	0	0	stim014_stimuli_original_vehicles_planes_2.png	D	0	0	0	216.064493690617	216.264490326168
57919.5	100	375	10	0	20	15	11	14	0	0	0	stim012_stimuli_original_vehicles_boats_4.png	V	0	0	0	216.464494519634	216.664494324476
58019.5	100	376	10	0	20	16	15	0	0	0	0	stim016_stimuli_original_vehicles_planes_4.png	A	0	0	0	216.864509733394	217.06451392686
58119.5	100	377	10	0	20	17	2	6	0	0	0	stim003_stimuli_original_animals_birds_3.png	G	0	0	0	217.264518120326	217.464520607144
58219.5	100	378	10	0	20	18	6	2	0	0	0	stim007_stimuli_original_animals_fish_3.png	C	0	0	0	217.664526507491	217.864531920059
58319.5	100	379	10	0	20	19	0	15	0	0	0	stim001_stimuli_original_animals_birds_1.png	Y	0	0	0	218.064535381971	218.264540306991
58419.5	100	380	10	0	20	20	14	11	0	0	0	stim015_stimuli_original_vehicles_planes_3.png	R	0	0	0	218.464576683473	218.664554789197
58519.5	100	381	10	0	20	21	3	13	0	0	0	stim004_stimuli_original_animals_birds_4.png	U	0	0	0	218.864589702804	219.064563907683
58619.5	100	382	10	0	20	22	15	5	0	0	0	stim016_stimuli_original_vehicles_planes_4.png	F	0	0	0	219.264566882281	219.464602039661
58719.5	100	383	10	0	20	23	7	0	0	0	0	stim008_stimuli_original_animals_fish_4.png	A	d	219.657136399532	0	219.664591604611	219.864609695273
58819.5	100	384	10	0	20	24	9	14	0	0	0	stim010_stimuli_original_vehicles_boats_2.png	V	0	0	0	220.064607062144	220.264622714603
58919.5	100	385	10	0	20	25	1	7	0	0	0	stim002_stimuli_original_animals_birds_2.png	J	0	0	0	220.464613498654	220.664631101536
59019.5	100	386	10	0	20	26	0	1	1	0	0	stim001_stimuli_original_animals_birds_1.png	B	0	0	0	220.864626761759	221.064618764911
59119.5	100	387	10	0	20	27	10	9	0	0	0	stim011_stimuli_original_vehicles_boats_3.png	L	0	0	0	221.264625884127	221.46462739585
59219.5	100	388	10	0	20	28	0	8	1	0	1	stim001_stimuli_original_animals_birds_1.png	K	0	0	0	221.664630613988	221.864638220984
59319.5	100	389	10	0	20	29	13	7	0	1	0	stim014_stimuli_original_vehicles_planes_2.png	J	0	0	0	222.06465070392	222.264648070792
59419.5	100	390	10	0	20	30	8	4	0	0	0	stim009_stimuli_original_vehicles_boats_1.png	E	0	0	0	222.464652752038	222.6646591397
59519.5	100	391	10	0	20	31	2	7	0	1	0	stim003_stimuli_original_animals_birds_3.png	J	0	0	0	222.864659919869	223.064678010531
59619.5	100	392	10	0	20	32	11	6	0	0	0	stim012_stimuli_original_vehicles_boats_4.png	G	0	0	0	223.264721457381	223.464706877712
59719.5	100	393	10	0	20	33	12	3	0	0	0	stim013_stimuli_original_vehicles_planes_1.png	D	0	0	0	223.664698393084	223.864690396003
59819.5	100	394	10	0	20	34	5	12	0	0	0	stim006_stimuli_original_animals_fish_2.png	T	0	0	0	224.064697515219	224.264702440239
59919.5	100	395	10	0	20	35	4	10	0	0	0	stim005_stimuli_original_animals_fish_1.png	Q	0	0	0	224.464707609033	224.664736427367
61003	100	396	11	1	38	0	9	12	0	0	0	stim010_stimuli_original_vehicles_boats_2.png	T	0	0	0	228.798170892755	228.998187032994
61103	100	397	11	1	38	1	4	3	0	0	0	stim005_stimuli_original_animals_fish_1.png	D	0	0	0	229.198192445561	229.398187862011
61203	100	398	11	1	38	2	3	10	0	0	0	stim004_stimuli_original_animals_birds_4.png	Q	0	0	0	229.598232283955	229.798194542294
61303	100	399	11	1	38	3	1	4	0	0	0	stim002_stimuli_original_animals_birds_2.png	E	0	0	0	229.99819507869	230.198219264625
61403	100	400	11	1	38	4	13	5	0	0	0	stim014_stimuli_original_vehicles_planes_2.png	F	0	0	0	230.398251008475	230.598229358206
61503	100	401	11	1	38	5	0	0	0	0	0	stim001_stimuli_original_animals_birds_1.png	A	0	0	0	230.798236477654	230.998240671121
61603	100	402	11	1	38	6	2	7	0	0	0	stim003_stimuli_original_animals_birds_3.png	J	0	0	0	231.198259493103	231.398254422005
61703	100	403	11	1	38	7	10	9	0	0	0	stim011_stimuli_original_vehicles_boats_3.png	L	0	0	0	231.598257152596	231.798260370968
61803	100	404	11	1	38	8	5	6	1	0	0	stim006_stimuli_original_animals_fish_2.png	G	0	0	0	231.998272366356	232.19827168365
61903	100	405	11	1	38	9	15	15	0	0	0	stim016_stimuli_original_vehicles_planes_4.png	Y	0	0	0	232.398266124772	232.598262516316
62003	100	406	11	1	38	10	5	8	1	0	0	stim006_stimuli_original_animals_fish_2.png	K	0	0	0	232.798259151867	232.998257981613
62103	100	407	11	1	38	11	11	13	0	0	0	stim012_stimuli_original_vehicles_boats_4.png	U	0	0	0	233.198301428463	233.398301720852
62203	100	408	11	1	38	12	14	4	0	1	0	stim015_stimuli_original_vehicles_planes_3.png	E	0	0	0	233.598307133419	233.798309864243
62303	100	409	11	1	38	13	6	2	0	0	0	stim007_stimuli_original_animals_fish_3.png	C	0	0	0	233.998303817818	234.198305085534
62403	100	410	11	1	38	14	5	4	0	1	1	stim006_stimuli_original_animals_fish_2.png	E	0	0	0	234.398330490571	234.598313960247
62503	100	411	11	1	38	15	12	1	0	0	0	stim013_stimuli_original_vehicles_planes_1.png	B	d	234.990540437633	1	234.798773833551	234.998347459594
62603	100	412	11	1	38	16	7	11	0	0	0	stim008_stimuli_original_animals_fish_4.png	R	0	0	0	235.198349946411	235.398356334306
62703	100	413	11	1	38	17	8	14	0	0	0	stim009_stimuli_original_vehicles_boats_1.png	V	0	0	0	235.598359552445	235.798337170854
62803	100	414	11	1	38	18	14	8	0	0	0	stim015_stimuli_original_vehicles_planes_3.png	K	0	0	0	235.998346972046	236.19834628934
62903	100	415	11	1	38	19	11	7	0	0	0	stim012_stimuli_original_vehicles_boats_4.png	J	0	0	0	236.398387541762	236.598382470664
63003	100	416	11	1	38	20	1	12	0	0	0	stim002_stimuli_original_animals_birds_2.png	T	0	0	0	236.798390077427	236.998371109134
63103	100	417	11	1	38	21	4	5	1	0	0	stim005_stimuli_original_animals_fish_1.png	F	0	0	0	237.198378715897	237.398387297988
63203	100	418	11	1	38	22	2	6	0	0	0	stim003_stimuli_original_animals_birds_3.png	G	0	0	0	237.598412946798	237.798393734731
63303	100	419	11	1	38	23	4	14	1	0	0	stim005_stimuli_original_animals_fish_1.png	V	0	0	0	237.998399147298	238.198400415014
63403	100	420	11	1	38	24	13	11	0	0	0	stim014_stimuli_original_vehicles_planes_2.png	R	0	0	0	238.398443130311	238.598437327659
63503	100	421	11	1	38	25	8	5	0	1	0	stim009_stimuli_original_vehicles_boats_1.png	F	0	0	0	238.798464683117	238.998447421473
63603	100	422	11	1	38	26	15	15	0	0	0	stim016_stimuli_original_vehicles_planes_4.png	Y	d	239.191066627158	0	239.198434304446	239.39846068481
63703	100	423	11	1	38	27	6	5	0	1	1	stim007_stimuli_original_animals_fish_3.png	F	0	0	0	239.598456588807	239.798469071742
63803	100	424	11	1	38	28	9	10	0	0	0	stim010_stimuli_original_vehicles_boats_2.png	Q	0	0	0	239.998481310904	240.198935820488
63903	100	425	11	1	38	29	7	2	0	0	0	stim008_stimuli_original_animals_fish_4.png	C	0	0	0	240.398491160944	240.598493891535
64003	100	426	11	1	38	30	0	0	0	0	0	stim001_stimuli_original_animals_birds_1.png	A	0	0	0	240.798476386117	240.998473752989
64103	100	427	11	1	38	31	5	13	0	0	0	stim006_stimuli_original_animals_fish_2.png	U	0	0	0	241.198483797722	241.398516029352
64203	100	428	11	1	38	32	4	1	0	0	0	stim005_stimuli_original_animals_fish_1.png	B	0	0	0	241.598520466825	241.798523684964
64303	100	429	11	1	38	33	10	3	0	0	0	stim011_stimuli_original_vehicles_boats_3.png	D	0	0	0	241.99853080418	242.198529390153
64403	100	430	11	1	38	34	3	4	0	0	0	stim004_stimuli_original_animals_birds_4.png	E	0	0	0	242.398532852298	242.598537777318
64503	100	431	11	1	38	35	12	9	0	0	0	stim013_stimuli_original_vehicles_planes_1.png	L	0	0	0	242.798546115635	242.998532511061
65298.75	100	432	12	0	8	0	14	15	0	0	0	stim015_stimuli_original_vehicles_planes_3.png	Y	0	0	0	245.981950543588	246.181951811537
65398.75	100	433	12	0	8	1	3	5	0	0	0	stim004_stimuli_original_animals_birds_4.png	F	0	0	0	246.381985506043	246.581996769877
65498.75	100	434	12	0	8	2	8	6	0	0	0	stim009_stimuli_original_vehicles_boats_1.png	G	0	0	0	246.781993892975	246.981985408347
65598.75	100	435	12	0	8	3	6	12	0	0	0	stim007_stimuli_original_animals_fish_3.png	T	0	0	0	247.182008619187	247.382009886904
65698.75	100	436	12	0	8	4	0	9	0	0	0	stim001_stimuli_original_animals_birds_1.png	L	0	0	0	247.582003108924	247.78229841101
65798.75	100	437	12	0	8	5	7	1	0	1	0	stim008_stimuli_original_animals_fish_4.png	B	0	0	0	247.982011983637	248.182019590633
65898.75	100	438	12	0	8	6	6	14	1	0	0	stim007_stimuli_original_animals_fish_3.png	V	0	0	0	248.382037193514	248.582041386981
65998.75	100	439	12	0	8	7	1	1	0	1	0	stim002_stimuli_original_animals_birds_2.png	B	d	248.973817304708	0	248.78204923775	248.98202685616
66098.75	100	440	12	0	8	8	6	3	1	0	1	stim007_stimuli_original_animals_fish_3.png	D	0	0	0	249.182037632447	249.382044507889
66198.75	100	441	12	0	8	9	13	11	0	0	0	stim014_stimuli_original_vehicles_planes_2.png	R	0	0	0	249.582040411886	249.782073618611
66298.75	100	442	12	0	8	10	15	4	0	0	0	stim016_stimuli_original_vehicles_planes_4.png	E	0	0	0	249.982078787405	250.182067864807
66398.75	100	443	12	0	8	11	4	10	0	0	0	stim005_stimuli_original_animals_fish_1.png	Q	0	0	0	250.38211033633	250.582102583256
66498.75	100	444	12	0	8	12	2	0	0	0	0	stim003_stimuli_original_animals_birds_3.png	A	0	0	0	250.782104582526	250.982089515077
66598.75	100	445	12	0	8	13	10	13	0	0	0	stim011_stimuli_original_vehicles_boats_3.png	U	0	0	0	251.182113701012	251.382116675377
66698.75	100	446	12	0	8	14	9	1	0	0	0	stim010_stimuli_original_vehicles_boats_2.png	B	0	0	0	251.582125257468	251.78214383591
66799	100	447	12	0	8	15	11	8	0	0	0	stim012_stimuli_original_vehicles_boats_4.png	K	0	0	0	251.982136082603	252.182121502934
66898.75	100	448	12	0	8	16	12	7	0	0	0	stim013_stimuli_original_vehicles_planes_1.png	J	0	0	0	252.382121551549	252.582125989022
66998.75	100	449	12	0	8	17	5	2	0	0	0	stim006_stimuli_original_animals_fish_2.png	C	0	0	0	252.782125062542	252.982132181758
67099	100	450	12	0	8	18	2	5	0	0	0	stim003_stimuli_original_animals_birds_3.png	F	0	0	0	253.182169289561	253.382170801051
67199	100	451	12	0	8	19	7	12	0	0	0	stim008_stimuli_original_animals_fish_4.png	T	0	0	0	253.582178895595	253.782161877723
67299	100	452	12	0	8	20	8	11	0	0	0	stim009_stimuli_original_vehicles_boats_1.png	R	0	0	0	253.982189476956	254.182193182874
67399	100	453	12	0	8	21	1	9	0	0	0	stim002_stimuli_original_animals_birds_2.png	L	0	0	0	254.382199326763	254.582202301361
67499	100	454	12	0	8	22	13	10	0	0	0	stim014_stimuli_original_vehicles_planes_2.png	Q	0	0	0	254.782208445249	254.982194596902
67599	100	455	12	0	8	23	0	2	0	0	0	stim001_stimuli_original_animals_birds_1.png	C	0	0	0	255.182220733259	255.382204202935
67699	100	456	12	0	8	24	10	4	0	0	0	stim011_stimuli_original_vehicles_boats_3.png	E	0	0	0	255.582206933759	255.782235995866
67799	100	457	12	0	8	25	4	15	0	0	0	stim005_stimuli_original_animals_fish_1.png	Y	0	0	0	255.982239457779	256.182230973383
67899	100	458	12	0	8	26	11	13	0	0	0	stim012_stimuli_original_vehicles_boats_4.png	U	0	0	0	256.382254915312	256.582257158356
67999	100	459	12	0	8	27	3	6	0	1	0	stim004_stimuli_original_animals_birds_4.png	G	0	0	0	256.782236970961	256.982287244406
68099	100	460	12	0	8	28	1	1	1	0	0	stim002_stimuli_original_animals_birds_2.png	B	0	0	0	257.182272664737	257.382275151554
68199	100	461	12	0	8	29	14	6	0	1	0	stim015_stimuli_original_vehicles_planes_3.png	G	0	0	0	257.582286415622	257.782265252899
68299	100	462	12	0	8	30	1	7	1	0	1	stim002_stimuli_original_animals_birds_2.png	J	d	257.987754183589	1	257.982294802554	258.182295095176
68399	100	463	12	0	8	31	9	0	0	0	0	stim010_stimuli_original_vehicles_boats_2.png	A	0	0	0	258.382655006601	258.582320792601
68499	100	464	12	0	8	32	12	6	0	0	0	stim013_stimuli_original_vehicles_planes_1.png	G	0	0	0	258.782318891026	258.982300897827
68599	100	465	12	0	8	33	6	8	0	0	0	stim007_stimuli_original_animals_fish_3.png	K	0	0	0	259.182330447482	259.382327814354
68699	100	466	12	0	8	34	5	3	0	0	0	stim006_stimuli_original_animals_fish_2.png	D	0	0	0	259.582339322194	259.78233985859
68799	100	467	12	0	8	35	15	14	0	0	0	stim016_stimuli_original_vehicles_planes_4.png	V	0	0	0	259.982346490258	260.182333373232
69836.5	100	468	13	1	35	0	10	2	0	0	0	stim011_stimuli_original_vehicles_boats_3.png	C	0	0	0	264.132458983921	264.332448792644
69936.5	100	469	13	1	35	1	9	14	0	0	0	stim010_stimuli_original_vehicles_boats_2.png	V	0	0	0	264.532467370853	264.732462543529
70036.5	100	470	13	1	35	2	15	4	0	0	0	stim016_stimuli_original_vehicles_planes_4.png	E	0	0	0	264.932481853291	265.13248263346
70136.5	100	471	13	1	35	3	1	7	0	0	0	stim002_stimuli_original_animals_birds_2.png	J	0	0	0	265.332468297333	265.532467370853
70236.5	100	472	13	1	35	4	8	12	1	0	0	stim009_stimuli_original_vehicles_boats_1.png	T	0	0	0	265.732474002521	265.93248063419
70336.5	100	473	13	1	35	5	11	9	0	0	0	stim012_stimuli_original_vehicles_boats_4.png	L	0	0	0	266.132488484727	266.332492678426
70436.5	100	474	13	1	35	6	8	3	1	0	0	stim009_stimuli_original_vehicles_boats_1.png	D	0	0	0	266.53249784722	266.732504722429
70536.5	100	475	13	1	35	7	0	8	0	0	0	stim001_stimuli_original_animals_birds_1.png	K	0	0	0	266.932918759761	267.132540659979
70636.5	100	476	13	1	35	8	13	13	0	0	0	stim014_stimuli_original_vehicles_planes_2.png	U	0	0	0	267.332544122124	267.532526372699
70736.5	100	477	13	1	35	9	6	1	0	0	0	stim007_stimuli_original_animals_fish_3.png	B	0	0	0	267.732528615976	267.932532077888
70836.5	100	478	13	1	35	10	14	3	0	1	0	stim015_stimuli_original_vehicles_planes_3.png	D	0	0	0	268.132540659979	268.332544365898
70936.5	100	479	13	1	35	11	4	15	0	0	0	stim005_stimuli_original_animals_fish_1.png	Y	0	0	0	268.532551972894	268.732557629235
71036.5	100	480	13	1	35	12	5	3	0	1	1	stim006_stimuli_original_animals_fish_2.png	D	0	0	0	268.932581571164	269.13258917816
71136.5	100	481	13	1	35	13	3	0	0	0	0	stim004_stimuli_original_animals_birds_4.png	A	d	269.325166204944	1	269.332593371626	269.532600247068
71236.5	100	482	13	1	35	14	7	5	0	0	0	stim008_stimuli_original_animals_fish_4.png	F	0	0	0	269.732613949105	269.932606439805
71336.5	100	483	13	1	35	15	2	6	0	0	0	stim003_stimuli_original_animals_birds_3.png	G	0	0	0	270.132597467629	270.332617996493
71436.5	100	484	13	1	35	16	12	11	0	0	0	stim013_stimuli_original_vehicles_planes_1.png	R	0	0	0	270.532626334578	270.732629309176
71536.5	100	485	13	1	35	17	8	10	0	0	0	stim009_stimuli_original_vehicles_boats_1.png	Q	0	0	0	270.932610584656	271.132608439075
71636.5	100	486	13	1	35	18	10	8	0	0	0	stim011_stimuli_original_vehicles_boats_3.png	K	0	0	0	271.332617021166	271.532614875585
71736.5	100	487	13	1	35	19	11	12	0	0	0	stim012_stimuli_original_vehicles_boats_4.png	T	0	0	0	271.732665149029	271.932648131158
71836.5	100	488	13	1	35	20	6	2	0	0	0	stim007_stimuli_original_animals_fish_3.png	C	0	0	0	272.132809825707	272.332673585042
71936.5	100	489	13	1	35	21	5	7	0	0	0	stim006_stimuli_original_animals_fish_2.png	J	0	0	0	272.532678022282	272.732658810215
72036.5	100	490	13	1	35	22	0	3	0	0	0	stim001_stimuli_original_animals_birds_1.png	D	0	0	0	272.93265885883	273.13265793235
72136.5	100	491	13	1	35	23	3	5	1	0	0	stim004_stimuli_original_animals_birds_4.png	F	0	0	0	273.332691139309	273.532696308102
72236.5	100	492	13	1	35	24	15	4	0	0	0	stim016_stimuli_original_vehicles_planes_4.png	E	0	0	0	273.732703427318	273.932695674011
72336.5	100	493	13	1	35	25	3	14	1	0	0	stim004_stimuli_original_animals_birds_4.png	V	0	0	0	274.132702793228	274.332721615443
72436.5	100	494	13	1	35	26	1	6	0	0	0	stim002_stimuli_original_animals_birds_2.png	G	0	0	0	274.532730441308	274.732733171899
72536.5	100	495	13	1	35	27	13	13	0	0	0	stim014_stimuli_original_vehicles_planes_2.png	U	0	0	0	274.932745655067	275.132721810369
72636.5	100	496	13	1	35	28	8	0	0	0	0	stim009_stimuli_original_vehicles_boats_1.png	A	0	0	0	275.332725760061	275.532764086965
72736.5	100	497	13	1	35	29	3	8	0	1	0	stim004_stimuli_original_animals_birds_4.png	K	0	0	0	275.732766573783	275.932748824591
72836.5	100	498	13	1	35	30	9	11	0	0	0	stim010_stimuli_original_vehicles_boats_2.png	R	0	0	0	276.132771791425	276.332778179087
72936.5	100	499	13	1	35	31	12	8	0	1	1	stim013_stimuli_original_vehicles_planes_1.png	K	0	0	0	276.532763599418	276.73278169008
73036.5	100	500	13	1	35	32	7	1	0	0	0	stim008_stimuli_original_animals_fish_4.png	B	d	277.124550537206	1	276.93278612732	277.132789589465
73136.5	100	501	13	1	35	33	4	15	0	0	0	stim005_stimuli_original_animals_fish_1.png	Y	0	0	0	277.332796708681	277.533077626023
73236.5	100	502	13	1	35	34	14	9	0	0	0	stim015_stimuli_original_vehicles_planes_3.png	L	0	0	0	277.732811434893	277.932811971288
73336.5	100	503	13	1	35	35	2	10	0	0	0	stim003_stimuli_original_animals_birds_3.png	Q	0	0	0	278.132816896075	278.332803047728
74124	100	504	14	0	25	0	7	10	0	0	0	stim008_stimuli_original_animals_fish_4.png	Q	0	0	0	281.282915492775	281.482893110951
74224	100	505	14	0	25	1	15	12	0	0	0	stim016_stimuli_original_vehicles_planes_4.png	T	0	0	0	281.682895841543	281.882908324711
74324	100	506	14	0	25	2	5	1	0	0	0	stim006_stimuli_original_animals_fish_2.png	B	0	0	0	282.082905935356	282.282912323251
74424	100	507	14	0	25	3	0	7	0	0	0	stim001_stimuli_original_animals_birds_1.png	J	0	0	0	282.482916760491	282.682924611261
74524	100	508	14	0	25	4	3	2	0	0	0	stim004_stimuli_original_animals_birds_4.png	C	0	0	0	282.882957330439	283.082961767679
74624	100	509	14	0	25	5	13	6	1	0	0	stim014_stimuli_original_vehicles_planes_2.png	G	0	0	0	283.28295255173	283.482970886165
74724	100	510	14	0	25	6	14	11	0	0	0	stim015_stimuli_original_vehicles_planes_3.png	R	0	0	0	283.68297971203	283.882985856151
74824	100	511	14	0	25	7	13	8	1	0	1	stim014_stimuli_original_vehicles_planes_2.png	K	d	284.075624810299	1	284.082990049617	284.282980345888
74924	100	512	14	0	25	8	12	9	0	0	0	stim013_stimuli_original_vehicles_planes_1.png	L	0	0	0	284.483002581401	284.682983856881
75024.25	100	513	14	0	25	9	1	4	0	0	0	stim002_stimuli_original_animals_birds_2.png	E	0	0	0	284.883466160623	285.083023451502
75124	100	514	14	0	25	10	9	13	0	0	0	stim010_stimuli_original_vehicles_boats_2.png	U	0	0	0	285.2830205746	285.483029400464
75224	100	515	14	0	25	11	10	12	0	1	0	stim011_stimuli_original_vehicles_boats_3.png	T	0	0	0	285.683031643508	285.883034374099
75324	100	516	14	0	25	12	2	15	0	0	0	stim003_stimuli_original_animals_birds_3.png	Y	0	0	0	286.083047344815	286.283047637437
75424	100	517	14	0	25	13	6	12	0	1	0	stim007_stimuli_original_animals_fish_3.png	T	0	0	0	286.483056463301	286.683058218798
75524	100	518	14	0	25	14	13	14	0	0	0	stim014_stimuli_original_vehicles_planes_2.png	V	0	0	0	286.883062656038	287.083065386629
75624	100	519	14	0	25	15	8	3	0	0	0	stim009_stimuli_original_vehicles_boats_1.png	D	0	0	0	287.283056658227	287.483096935553
75724	100	520	14	0	25	16	11	5	0	0	0	stim012_stimuli_original_vehicles_boats_4.png	F	0	0	0	287.683084306307	287.883091913071
75824	100	521	14	0	25	17	4	0	0	0	0	stim005_stimuli_original_animals_fish_1.png	A	0	0	0	288.083095618989	288.283099081134
75924	100	522	14	0	25	18	0	4	0	0	0	stim001_stimuli_original_animals_birds_1.png	E	0	0	0	288.483097423334	288.68311112537
76024	100	523	14	0	25	19	5	11	0	0	0	stim006_stimuli_original_animals_fish_2.png	R	0	0	0	288.883133360883	289.083119756309
76124	100	524	14	0	25	20	3	8	0	0	0	stim004_stimuli_original_animals_birds_4.png	K	0	0	0	289.283128825948	289.483143747086
76224	100	525	14	0	25	21	14	13	0	0	0	stim015_stimuli_original_vehicles_planes_3.png	U	0	0	0	289.683141601505	289.883120195009
76324	100	526	14	0	25	22	12	6	1	0	0	stim013_stimuli_original_vehicles_planes_1.png	G	0	0	0	290.083130727755	290.283328749705
76424	100	527	14	0	25	23	15	2	0	0	0	stim016_stimuli_original_vehicles_planes_4.png	C	0	0	0	290.483167396626	290.68315793667
76524	100	528	14	0	25	24	12	10	1	0	1	stim013_stimuli_original_vehicles_planes_1.png	Q	d	290.875758612994	1	290.883148233173	291.083169980906
76624	100	529	14	0	25	25	13	9	0	0	0	stim014_stimuli_original_vehicles_planes_2.png	L	0	0	0	291.283181001199	291.483183488017
76724	100	530	14	0	25	26	4	1	0	0	0	stim005_stimuli_original_animals_fish_1.png	B	0	0	0	291.68317622249	291.883176758885
76824	100	531	14	0	25	27	9	12	0	0	0	stim010_stimuli_original_vehicles_boats_2.png	T	0	0	0	292.083186803851	292.283187827794
76924	100	532	14	0	25	28	8	13	0	1	0	stim009_stimuli_original_vehicles_boats_1.png	U	0	0	0	292.483198848087	292.68319109478
77024	100	533	14	0	25	29	11	14	0	0	0	stim012_stimuli_original_vehicles_boats_4.png	V	0	0	0	292.883209429216	293.083227276104
77124	100	534	14	0	25	30	6	13	0	1	0	stim007_stimuli_original_animals_fish_3.png	U	0	0	0	293.283236589748	293.483218352776
77224	100	535	14	0	25	31	2	3	0	0	0	stim003_stimuli_original_animals_birds_3.png	D	0	0	0	293.683228641516	293.883228690363
77324	100	536	14	0	25	32	7	0	0	0	0	stim008_stimuli_original_animals_fish_4.png	A	0	0	0	294.083254582947	294.283246585866
77424	100	537	14	0	25	33	1	5	0	0	0	stim002_stimuli_original_animals_birds_2.png	F	0	0	0	294.483250291785	294.683275209041
77524	100	538	14	0	25	34	12	15	0	0	0	stim013_stimuli_original_vehicles_planes_1.png	Y	0	0	0	294.883268187288	295.083257020917
77624	100	539	14	0	25	35	10	7	0	0	0	stim011_stimuli_original_vehicles_boats_3.png	J	0	0	0	295.283264140133	295.483267846052
79228.25	100	540	15	1	39	0	6	4	0	0	0	stim007_stimuli_original_animals_fish_3.png	E	0	0	0	301.700127804885	301.900131998351
79328.25	100	541	15	1	39	1	14	6	0	0	0	stim015_stimuli_original_vehicles_planes_3.png	G	0	0	0	302.100100595737	302.300104057882
79428.25	100	542	15	1	39	2	11	7	0	0	0	stim012_stimuli_original_vehicles_boats_4.png	J	0	0	0	302.500123123638	302.700124879135
79528.25	100	543	15	1	39	3	8	14	0	0	0	stim009_stimuli_original_vehicles_boats_1.png	V	0	0	0	302.900132485898	303.100159110036
79628.25	100	544	15	1	39	4	4	1	0	0	0	stim005_stimuli_original_animals_fish_1.png	B	0	0	0	303.300145749236	303.500149942702
79728.25	100	545	15	1	39	5	9	8	0	0	0	stim010_stimuli_original_vehicles_boats_2.png	K	0	0	0	303.700180711458	303.900181491626
79828.25	100	546	15	1	39	6	12	9	0	0	0	stim013_stimuli_original_vehicles_planes_1.png	L	0	0	0	304.100186172873	304.300162572181
79928.25	100	547	15	1	39	7	13	5	0	0	0	stim014_stimuli_original_vehicles_planes_2.png	F	0	0	0	304.500185051234	304.700190951582
80028.25	100	548	15	1	39	8	11	15	1	0	0	stim012_stimuli_original_vehicles_boats_4.png	Y	0	0	0	304.900202703197	305.100208603311
80128.25	100	549	15	1	39	9	10	2	0	1	0	stim011_stimuli_original_vehicles_boats_3.png	C	0	0	0	305.300209871028	305.500209432328
80228.25	100	550	15	1	39	10	11	0	1	0	0	stim012_stimuli_original_vehicles_boats_4.png	A	0	0	0	305.70021874574	305.900237567956
80328.25	100	551	15	1	39	11	15	2	0	1	1	stim016_stimuli_original_vehicles_planes_4.png	C	0	0	0	306.100241517648	306.300238640513
80428.25	100	552	15	1	39	12	1	10	0	0	0	stim002_stimuli_original_animals_birds_2.png	Q	d	306.492817130173	1	306.500239908462	306.700252635172
80528.25	100	553	15	1	39	13	2	3	0	0	0	stim003_stimuli_original_animals_birds_3.png	D	0	0	0	306.900264143012	307.10024346807
80628.25	100	554	15	1	39	14	5	11	0	0	0	stim006_stimuli_original_animals_fish_2.png	R	0	0	0	307.30023839674	307.500240883557
80728.25	100	555	15	1	39	15	7	2	0	0	0	stim008_stimuli_original_animals_fish_4.png	C	0	0	0	307.700248978101	307.900255853543
80828.25	100	556	15	1	39	16	3	13	0	0	0	stim004_stimuli_original_animals_birds_4.png	U	d	308.092818007804	1	308.100260291016	308.300263996702
80928.25	100	557	15	1	39	17	0	12	0	0	0	stim001_stimuli_original_animals_birds_1.png	T	0	0	0	308.500270384597	308.700273115188
81028.5	100	558	15	1	39	18	12	0	0	0	0	stim013_stimuli_original_vehicles_planes_1.png	A	0	0	0	308.900317049818	309.100318561308
81128.5	100	559	15	1	39	19	13	3	0	0	0	stim014_stimuli_original_vehicles_planes_2.png	D	0	0	0	309.300322267227	309.500298910309
81228.5	100	560	15	1	39	20	2	7	0	0	0	stim003_stimuli_original_animals_birds_3.png	J	0	0	0	309.700306761079	309.900340211578
81328.5	100	561	15	1	39	21	11	5	0	0	0	stim012_stimuli_original_vehicles_boats_4.png	F	0	0	0	310.100317586213	310.300342259696
81428.5	100	562	15	1	39	22	3	2	0	0	0	stim004_stimuli_original_animals_birds_4.png	C	0	0	0	310.500354742631	310.700359667651
81528.5	100	563	15	1	39	23	10	1	0	0	0	stim011_stimuli_original_vehicles_boats_3.png	B	d	311.102676442359	0	310.900367518188	311.100355620496
81628.5	100	564	15	1	39	24	2	15	1	0	0	stim003_stimuli_original_animals_birds_3.png	Y	0	0	0	311.300350792939	311.500350354007
81728.5	100	565	15	1	39	25	0	11	0	1	0	stim001_stimuli_original_animals_birds_1.png	R	0	0	0	311.70037917234	311.900390923955
81828.5	100	566	15	1	39	26	2	10	1	0	0	stim003_stimuli_original_animals_birds_3.png	Q	0	0	0	312.100396336522	312.300381025299
81928.5	100	567	15	1	39	27	15	11	0	1	1	stim016_stimuli_original_vehicles_planes_4.png	R	0	0	0	312.500403992133	312.700404528528
82028.5	100	568	15	1	39	28	5	13	0	0	0	stim006_stimuli_original_animals_fish_2.png	U	d	312.892961806618	1	312.900424082065	313.100420717616
82128.5	100	569	15	1	39	29	9	12	0	0	0	stim010_stimuli_original_vehicles_boats_2.png	T	0	0	0	313.300432225224	313.500405942556
82228.5	100	570	15	1	39	30	8	9	0	0	0	stim009_stimuli_original_vehicles_boats_1.png	L	0	0	0	313.70043841796	313.900446024956
82328.5	100	571	15	1	39	31	1	4	0	0	0	stim002_stimuli_original_animals_birds_2.png	E	0	0	0	314.100457776571	314.300454168115
82428.5	100	572	15	1	39	32	14	8	0	0	0	stim015_stimuli_original_vehicles_planes_3.png	K	0	0	0	314.50043983222	314.700437686639
82528.5	100	573	15	1	39	33	7	11	0	0	0	stim008_stimuli_original_animals_fish_4.png	R	0	0	0	314.900474306894	315.100478987908
82628.5	100	574	15	1	39	34	6	14	0	0	0	stim007_stimuli_original_animals_fish_3.png	V	0	0	0	315.300485375803	315.500483230222
82728.5	100	575	15	1	39	35	4	6	0	0	0	stim005_stimuli_original_animals_fish_1.png	G	0	0	0	315.700479377992	315.900496249786
83374.25	100	576	16	0	45	0	14	11	0	0	0	stim015_stimuli_original_vehicles_planes_3.png	R	0	0	0	318.28390682186	318.48389346106
83474.25	100	577	16	0	45	1	0	2	0	0	0	stim001_stimuli_original_animals_birds_1.png	C	0	0	0	318.683915696573	318.883905505296
83574.25	100	578	16	0	45	2	11	3	0	0	0	stim012_stimuli_original_vehicles_boats_4.png	D	0	0	0	319.083924083505	319.283905115211
83674.25	100	579	16	0	45	3	7	6	0	0	0	stim008_stimuli_original_animals_fish_4.png	G	0	0	0	319.483906382928	319.683912527049
83774.25	100	580	16	0	45	4	2	12	0	0	0	stim003_stimuli_original_animals_birds_3.png	T	0	0	0	319.883915501414	320.083921645535
83874.25	100	581	16	0	45	5	11	0	1	0	0	stim012_stimuli_original_vehicles_boats_4.png	A	0	0	0	320.283925351454	320.48393247067
83974.25	100	582	16	0	45	6	4	5	0	0	0	stim005_stimuli_original_animals_fish_1.png	F	d	320.875711557688	0	320.683942027856	320.883940857602
84074.25	100	583	16	0	45	7	11	9	1	0	1	stim012_stimuli_original_vehicles_boats_4.png	L	0	0	0	321.083951390116	321.283941199072
84174.25	100	584	16	0	45	8	8	13	0	0	0	stim009_stimuli_original_vehicles_boats_1.png	U	0	0	0	321.483965141	321.683992252685
84274.25	100	585	16	0	45	9	13	15	0	0	0	stim014_stimuli_original_vehicles_planes_2.png	Y	0	0	0	321.884001810104	322.083999908296
84374.25	100	586	16	0	45	10	1	1	0	1	0	stim002_stimuli_original_animals_birds_2.png	B	0	0	0	322.284006783739	322.484028287698
84474.25	100	587	16	0	45	11	10	7	0	0	0	stim011_stimuli_original_vehicles_boats_3.png	J	0	0	0	322.683993471786	322.884024971863
84574.25	100	588	16	0	45	12	6	1	0	1	0	stim007_stimuli_original_animals_fish_3.png	B	0	0	0	323.084028677782	323.284007758833
84674.25	100	589	16	0	45	13	3	8	0	0	0	stim004_stimuli_original_animals_birds_4.png	K	0	0	0	323.484016340924	323.684015658451
84774.5	100	590	16	0	45	14	15	10	0	0	0	stim016_stimuli_original_vehicles_planes_4.png	Q	0	0	0	323.884466510732	324.084062079666
84874.25	100	591	16	0	45	15	9	1	0	0	0	stim010_stimuli_original_vehicles_boats_2.png	B	0	0	0	324.284047012217	324.484038283816
84974.25	100	592	16	0	45	16	5	14	0	0	0	stim006_stimuli_original_animals_fish_2.png	V	0	0	0	324.684070515446	324.884053010028
85074.25	100	593	16	0	45	17	12	4	0	0	0	stim013_stimuli_original_vehicles_planes_1.png	E	0	0	0	325.08408012148	325.284087728476
85174.25	100	594	16	0	45	18	4	12	0	0	0	stim005_stimuli_original_animals_fish_1.png	T	0	0	0	325.484093628591	325.684095871635
85274.25	100	595	16	0	45	19	14	5	0	0	0	stim015_stimuli_original_vehicles_planes_3.png	F	0	0	0	325.884086411912	326.084109866293
85374.25	100	596	16	0	45	20	1	9	0	0	0	stim002_stimuli_original_animals_birds_2.png	L	d	326.27663861867	0	326.284114791313	326.48410484381
85474.25	100	597	16	0	45	21	10	15	0	0	0	stim011_stimuli_original_vehicles_boats_3.png	Y	0	0	0	326.684109525057	326.884104209952
85574.25	100	598	16	0	45	22	8	3	0	0	0	stim009_stimuli_original_vehicles_boats_1.png	D	0	0	0	327.084140098654	327.284139172174
85674.25	100	599	16	0	45	23	1	6	1	0	0	stim002_stimuli_original_animals_birds_2.png	G	0	0	0	327.484129956225	327.684126591543
85774.25	100	600	16	0	45	24	7	10	0	0	0	stim008_stimuli_original_animals_fish_4.png	Q	0	0	0	327.884174914798	328.084162285319
85874.25	100	601	16	0	45	25	1	1	1	0	1	stim002_stimuli_original_animals_birds_2.png	B	0	0	0	328.284151118947	328.484143609647
85974.25	100	602	16	0	45	26	15	13	0	0	0	stim016_stimuli_original_vehicles_planes_4.png	U	0	0	0	328.684162919177	328.884160773829
86074.25	100	603	16	0	45	27	13	8	0	0	0	stim014_stimuli_original_vehicles_planes_2.png	K	0	0	0	329.084151801653	329.284597290214
86174.25	100	604	16	0	45	28	9	11	0	1	0	stim010_stimuli_original_vehicles_boats_2.png	R	0	0	0	329.484185788548	329.684182911646
86274.25	100	605	16	0	45	29	5	4	0	0	0	stim006_stimuli_original_animals_fish_2.png	E	0	0	0	329.884186373791	330.084189591929
86374.25	100	606	16	0	45	30	0	11	0	1	0	stim001_stimuli_original_animals_birds_1.png	R	0	0	0	330.284197686473	330.484202367719
86474.25	100	607	16	0	45	31	12	2	0	0	0	stim013_stimuli_original_vehicles_planes_1.png	C	0	0	0	330.684212900233	330.884210267104
86574.25	100	608	16	0	45	32	6	7	0	0	0	stim007_stimuli_original_animals_fish_3.png	J	0	0	0	331.084225432016	331.284221579786
86674.25	100	609	16	0	45	33	3	11	0	0	0	stim004_stimuli_original_animals_birds_4.png	R	0	0	0	331.48423869512	331.684254104039
86774.25	100	610	16	0	45	34	2	0	0	0	0	stim003_stimuli_original_animals_birds_3.png	A	0	0	0	331.884264880326	332.084269317798
86874.25	100	611	16	0	45	35	11	14	0	0	0	stim012_stimuli_original_vehicles_boats_4.png	V	0	0	0	332.284255469218	332.484254298965
88011.75	100	612	17	1	32	0	2	2	0	0	0	stim003_stimuli_original_animals_birds_3.png	C	0	0	0	336.834396098508	337.034403705504
88111.75	100	613	17	1	32	1	15	4	0	0	0	stim016_stimuli_original_vehicles_planes_4.png	E	0	0	0	337.23440497322	337.434393806849
88212	100	614	17	1	32	2	6	3	0	0	0	stim007_stimuli_original_animals_fish_3.png	D	0	0	0	337.634418480331	337.834418285172
88312	100	615	17	1	32	3	9	15	0	0	0	stim010_stimuli_original_vehicles_boats_2.png	Y	0	0	0	338.034427842591	338.234864310361
88412	100	616	17	1	32	4	14	0	0	0	0	stim015_stimuli_original_vehicles_planes_3.png	A	0	0	0	338.434415018186	338.634416773682
88512	100	617	17	1	32	5	13	11	1	0	0	stim014_stimuli_original_vehicles_planes_2.png	R	0	0	0	338.834438765189	339.03445027303
88612	100	618	17	1	32	6	4	12	0	0	0	stim005_stimuli_original_animals_fish_1.png	T	0	0	0	339.234512493247	339.434462804813
88712	100	619	17	1	32	7	13	1	1	0	0	stim014_stimuli_original_vehicles_planes_2.png	B	0	0	0	339.634456758387	339.83445827011
88812	100	620	17	1	32	8	5	7	0	0	0	stim006_stimuli_original_animals_fish_2.png	J	0	0	0	340.034481724491	340.2344522723
88912	100	621	17	1	32	9	10	10	0	0	0	stim011_stimuli_original_vehicles_boats_3.png	Q	0	0	0	340.434469387634	340.634493329795
89012	100	622	17	1	32	10	8	3	0	1	0	stim009_stimuli_original_vehicles_boats_1.png	D	0	0	0	340.834518247051	341.034508056007
89112	100	623	17	1	32	11	0	9	0	0	0	stim001_stimuli_original_animals_birds_1.png	L	0	0	0	341.2345120057	341.434485723032
89212	100	624	17	1	32	12	3	3	0	1	1	stim004_stimuli_original_animals_birds_4.png	D	0	0	0	341.63449186692	341.834508494707
89312	100	625	17	1	32	13	13	13	0	0	0	stim014_stimuli_original_vehicles_planes_2.png	U	d	342.041720182868	1	342.034519758774	342.234554428374
89412	100	626	17	1	32	14	12	6	0	0	0	stim013_stimuli_original_vehicles_planes_1.png	G	0	0	0	342.434548381949	342.634546724148
89512	100	627	17	1	32	15	7	14	0	0	0	stim008_stimuli_original_animals_fish_4.png	V	0	0	0	342.834554818459	343.034558524378
89612	100	628	17	1	32	16	1	8	0	0	0	stim002_stimuli_original_animals_birds_2.png	K	0	0	0	343.234570763772	343.434568130644
89712	100	629	17	1	32	17	11	5	0	0	0	stim012_stimuli_original_vehicles_boats_4.png	F	0	0	0	343.634582564002	343.834578224225
89812	100	630	17	1	32	18	5	11	0	0	0	stim006_stimuli_original_animals_fish_2.png	R	0	0	0	344.034589244518	344.234595875954
89912	100	631	17	1	32	19	8	1	0	0	0	stim009_stimuli_original_vehicles_boats_1.png	B	0	0	0	344.434599581873	344.634599386947
90012	100	632	17	1	32	20	14	7	0	0	0	stim015_stimuli_original_vehicles_planes_3.png	J	0	0	0	344.83460626239	345.034612650052
90112	100	633	17	1	32	21	6	12	0	0	0	stim007_stimuli_original_animals_fish_3.png	T	0	0	0	345.234619037947	345.434623475187
90212	100	634	17	1	32	22	13	13	0	0	0	stim014_stimuli_original_vehicles_planes_2.png	U	0	0	0	345.634618160315	345.834617965156
90312	100	635	17	1	32	23	3	3	1	0	0	stim004_stimuli_original_animals_birds_4.png	D	0	0	0	346.034620451974	346.234619037947
90412	100	636	17	1	32	24	9	0	0	0	0	stim010_stimuli_original_vehicles_boats_2.png	A	0	0	0	346.434626888717	346.634628156433
90512	100	637	17	1	32	25	3	8	1	0	0	stim004_stimuli_original_animals_birds_4.png	K	0	0	0	346.834636982298	347.034664337756
90612	100	638	17	1	32	26	10	10	0	0	0	stim011_stimuli_original_vehicles_boats_3.png	Q	0	0	0	347.234674626496	347.434692717157
90712	100	639	17	1	32	27	7	5	0	0	0	stim008_stimuli_original_animals_fish_4.png	F	0	0	0	347.634685695404	347.834685500478
90812	100	640	17	1	32	28	1	13	0	1	0	stim002_stimuli_original_animals_birds_2.png	U	0	0	0	348.034692619694	348.234696813161
90912	100	641	17	1	32	29	12	4	0	0	0	stim013_stimuli_original_vehicles_planes_1.png	E	0	0	0	348.434705395252	348.634705931647
91012	100	642	17	1	32	30	11	13	0	1	1	stim012_stimuli_original_vehicles_boats_4.png	U	0	0	0	348.835114361253	349.034723095829
91112	100	643	17	1	32	31	0	14	0	0	0	stim001_stimuli_original_animals_birds_1.png	V	d	349.426494868705	1	349.234728020849	349.434730507666
91212	100	644	17	1	32	32	15	9	0	0	0	stim016_stimuli_original_vehicles_planes_4.png	L	0	0	0	349.634706662968	349.834731092677
91312	100	645	17	1	32	33	3	6	0	0	0	stim004_stimuli_original_animals_birds_4.png	G	0	0	0	350.034721632954	350.234723632224
91412	100	646	17	1	32	34	4	15	0	0	0	stim005_stimuli_original_animals_fish_1.png	Y	0	0	0	350.434722705744	350.634723485913
91512	100	647	17	1	32	35	2	2	0	0	0	stim003_stimuli_original_animals_birds_3.png	C	0	0	0	350.834731092677	351.034736505244
92266.25	100	648	18	0	34	0	9	12	0	0	0	stim010_stimuli_original_vehicles_boats_2.png	T	0	0	0	353.851501280908	354.051494259154
92366.25	100	649	18	0	34	1	6	6	0	0	0	stim007_stimuli_original_animals_fish_3.png	G	0	0	0	354.251502353698	354.451531415805
92466.25	100	650	18	0	34	2	15	9	0	0	0	stim016_stimuli_original_vehicles_planes_4.png	L	0	0	0	354.651538778795	354.851539071416
92566.25	100	651	18	0	34	3	8	1	0	0	0	stim009_stimuli_original_vehicles_boats_1.png	B	0	0	0	355.05153473164	355.251550871646
92666.25	100	652	18	0	34	4	4	0	0	0	0	stim005_stimuli_original_animals_fish_1.png	A	0	0	0	355.45157968998	355.651560234139
92766.25	100	653	18	0	34	5	5	8	0	0	0	stim006_stimuli_original_animals_fish_2.png	K	0	0	0	355.851569303777	356.051555699203
92866.25	100	654	18	0	34	6	0	2	0	0	0	stim001_stimuli_original_animals_birds_1.png	C	0	0	0	356.252035564976	356.451564817689
92966.25	100	655	18	0	34	7	7	4	0	0	0	stim008_stimuli_original_animals_fish_4.png	E	0	0	0	356.651572180679	356.851572717074
93066.25	100	656	18	0	34	8	13	5	0	0	0	stim014_stimuli_original_vehicles_planes_2.png	F	0	0	0	357.051573741017	357.25157817849
93166.25	100	657	18	0	34	9	4	7	1	1	0	stim005_stimuli_original_animals_fish_1.png	J	0	0	0	357.451611872995	357.65157632553
93266.25	100	658	18	0	34	10	2	14	0	0	0	stim003_stimuli_original_animals_birds_3.png	V	0	0	0	357.85161977238	358.051623965846
93366.25	100	659	18	0	34	11	4	7	1	1	1	stim005_stimuli_original_animals_fish_1.png	J	0	0	0	358.251622064039	358.451626745285
93466.25	100	660	18	0	34	12	11	10	0	0	0	stim012_stimuli_original_vehicles_boats_4.png	Q	d	358.644174758578	1	358.651630207431	358.851658537984
93566.25	100	661	18	0	34	13	3	15	0	0	0	stim004_stimuli_original_animals_birds_4.png	Y	0	0	0	359.051624453394	359.25165570993
93666.25	100	662	18	0	34	14	10	13	0	0	0	stim011_stimuli_original_vehicles_boats_3.png	U	0	0	0	359.451671849936	359.651669704588
93766.25	100	663	18	0	34	15	12	3	0	0	0	stim013_stimuli_original_vehicles_planes_1.png	D	0	0	0	359.851662926609	360.051681504818
93866.25	100	664	18	0	34	16	1	11	0	0	0	stim002_stimuli_original_animals_birds_2.png	R	0	0	0	360.251683747862	360.451696474804
93966.25	100	665	18	0	34	17	14	7	0	0	0	stim015_stimuli_original_vehicles_planes_3.png	J	0	0	0	360.651672874112	360.85168194375
94066.25	100	666	18	0	34	18	7	14	0	0	0	stim008_stimuli_original_animals_fish_4.png	V	0	0	0	361.051670289598	361.251674483065
94166.25	100	667	18	0	34	19	11	1	0	0	0	stim012_stimuli_original_vehicles_boats_4.png	B	0	0	0	361.451697937679	361.651965689147
94266.25	100	668	18	0	34	20	3	12	0	0	0	stim004_stimuli_original_animals_birds_4.png	T	0	0	0	361.851715589408	362.051696377341
94366.25	100	669	18	0	34	21	13	10	0	0	0	stim014_stimuli_original_vehicles_planes_2.png	Q	0	0	0	362.251712517347	362.451715979492
94466.25	100	670	18	0	34	22	15	3	0	0	0	stim016_stimuli_original_vehicles_planes_4.png	D	0	0	0	362.651722367387	362.851752404589
94566.25	100	671	18	0	34	23	10	11	0	0	0	stim011_stimuli_original_vehicles_boats_3.png	R	0	0	0	363.051731485873	363.251730559394
94666.25	100	672	18	0	34	24	7	4	1	1	0	stim008_stimuli_original_animals_fish_4.png	E	0	0	0	363.451751819579	363.651779906359
94766.25	100	673	18	0	34	25	14	2	0	0	0	stim015_stimuli_original_vehicles_planes_3.png	C	0	0	0	363.851783856051	364.051784392446
94866.25	100	674	18	0	34	26	7	4	1	1	1	stim008_stimuli_original_animals_fish_4.png	E	0	0	0	364.251790292561	364.451798143331
94966.25	100	675	18	0	34	27	5	13	0	0	0	stim006_stimuli_original_animals_fish_2.png	U	0	0	0	364.65180184925	364.851813357091
95066.25	100	676	18	0	34	28	4	7	0	0	0	stim005_stimuli_original_animals_fish_1.png	J	0	0	0	365.051812430611	365.251800776459
95166.25	100	677	18	0	34	29	2	0	0	0	0	stim003_stimuli_original_animals_birds_3.png	A	0	0	0	365.451809114777	365.651828668313
95266.25	100	678	18	0	34	30	8	5	0	0	0	stim009_stimuli_original_vehicles_boats_1.png	F	0	0	0	365.851833837107	366.051837299019
95366.25	100	679	18	0	34	31	0	4	0	0	0	stim001_stimuli_original_animals_birds_1.png	E	0	0	0	366.25184636889	366.451840566238
95466.25	100	680	18	0	34	32	1	8	0	0	0	stim002_stimuli_original_animals_birds_2.png	K	0	0	0	366.651850610971	366.851867238991
95566.25	100	681	18	0	34	33	9	15	0	0	0	stim010_stimuli_original_vehicles_boats_2.png	Y	0	0	0	367.051855097059	367.251850757282
95666.25	100	682	18	0	34	34	6	6	0	0	0	stim007_stimuli_original_animals_fish_3.png	G	0	0	0	367.451876406092	367.6518586569
95766.25	100	683	18	0	34	35	12	9	0	0	0	stim013_stimuli_original_vehicles_planes_1.png	L	0	0	0	367.851893082727	368.051869725809
96533	100	684	19	1	17	0	5	3	0	0	0	stim006_stimuli_original_animals_fish_2.png	D	0	0	0	370.918621042976	371.118645228911
96633	100	685	19	1	17	1	10	5	0	0	0	stim011_stimuli_original_vehicles_boats_3.png	F	0	0	0	371.318645033985	371.518650202546
96733	100	686	19	1	17	2	15	13	0	0	0	stim016_stimuli_original_vehicles_planes_4.png	U	0	0	0	371.718653420918	371.918641279219
96833	100	687	19	1	17	3	6	0	0	0	0	stim007_stimuli_original_animals_fish_3.png	A	0	0	0	372.118642303161	372.31865429855
96933	100	688	19	1	17	4	13	4	1	0	0	stim014_stimuli_original_vehicles_planes_2.png	E	0	0	0	372.51866288064	372.718683409505
97033	100	689	19	1	17	5	9	9	0	0	0	stim010_stimuli_original_vehicles_boats_2.png	L	0	0	0	372.918682726799	373.11870959471
97133	100	690	19	1	17	6	13	11	1	0	0	stim014_stimuli_original_vehicles_planes_2.png	R	0	0	0	373.318704523379	373.518685555086
97233	100	691	19	1	17	7	8	1	0	0	0	stim009_stimuli_original_vehicles_boats_1.png	B	0	0	0	373.718693649396	373.918719298206
97333	100	692	19	1	17	8	12	10	0	0	0	stim013_stimuli_original_vehicles_planes_1.png	Q	0	0	0	374.118721297476	374.318724759622
97433	100	693	19	1	17	9	7	12	0	0	0	stim008_stimuli_original_animals_fish_4.png	T	0	0	0	374.518736998783	374.718738022726
97533	100	694	19	1	17	10	14	9	0	1	0	stim015_stimuli_original_vehicles_planes_3.png	L	0	0	0	374.918727587676	375.118747384986
97633	100	695	19	1	17	11	2	7	0	0	0	stim003_stimuli_original_animals_birds_3.png	J	d	375.510517938994	0	375.31875255378	375.518732122611
97733	100	696	19	1	17	12	4	9	0	1	1	stim005_stimuli_original_animals_fish_1.png	L	0	0	0	375.71874168003	375.918741728645
97833	100	697	19	1	17	13	1	14	0	0	0	stim002_stimuli_original_animals_birds_2.png	V	0	0	0	376.118784931721	376.318777909968
97933	100	698	19	1	17	14	3	6	0	0	0	stim004_stimuli_original_animals_birds_4.png	G	0	0	0	376.518785516964	376.718771668617
98033	100	699	19	1	17	15	11	15	0	0	0	stim012_stimuli_original_vehicles_boats_4.png	Y	0	0	0	376.918782688677	377.118797853589
98133	100	700	19	1	17	16	13	8	0	0	0	stim014_stimuli_original_vehicles_planes_2.png	K	0	0	0	377.318809117656	377.518785760738
98233	100	701	19	1	17	17	0	2	0	0	0	stim001_stimuli_original_animals_birds_1.png	C	0	0	0	377.718793123728	377.91879414767
98333	100	702	19	1	17	18	2	0	0	0	0	stim003_stimuli_original_animals_birds_3.png	A	0	0	0	378.118831499247	378.318816675805
98433	100	703	19	1	17	19	8	13	0	0	0	stim009_stimuli_original_vehicles_boats_1.png	U	0	0	0	378.518814042676	378.718814579071
98533	100	704	19	1	17	20	15	11	0	0	0	stim016_stimuli_original_vehicles_planes_4.png	R	0	0	0	378.918851686874	379.118827842176
98633	100	705	19	1	17	21	6	3	0	0	0	stim007_stimuli_original_animals_fish_3.png	D	0	0	0	379.318837155821	379.51883744821
98733	100	706	19	1	17	22	14	1	0	0	0	stim015_stimuli_original_vehicles_planes_3.png	B	0	0	0	379.719256849261	379.918862658087
98833	100	707	19	1	17	23	9	4	1	0	0	stim010_stimuli_original_vehicles_boats_2.png	E	0	0	0	380.118883430725	380.318859342486
98933	100	708	19	1	17	24	7	2	0	0	0	stim008_stimuli_original_animals_fish_4.png	C	0	0	0	380.518844518811	380.718895036029
99033	100	709	19	1	17	25	9	14	1	0	0	stim010_stimuli_original_vehicles_boats_2.png	V	0	0	0	380.918885088759	381.118909274461
99133	100	710	19	1	17	26	12	7	0	0	0	stim013_stimuli_original_vehicles_planes_1.png	J	0	0	0	381.318908591988	381.518888160586
99233	100	711	19	1	17	27	10	12	0	0	0	stim011_stimuli_original_vehicles_boats_3.png	T	0	0	0	381.718886990333	381.918893622002
99333	100	712	19	1	17	28	1	8	0	0	0	stim002_stimuli_original_animals_birds_2.png	K	0	0	0	382.118912931764	382.318931753747
99433	100	713	19	1	17	29	11	13	0	1	0	stim012_stimuli_original_vehicles_boats_4.png	U	0	0	0	382.518941067392	382.718934045639
99533	100	714	19	1	17	30	9	9	0	0	0	stim010_stimuli_original_vehicles_boats_2.png	L	0	0	0	382.91894262773	383.118943164125
99633	100	715	19	1	17	31	4	13	0	1	1	stim005_stimuli_original_animals_fish_1.png	U	0	0	0	383.318953696638	383.518959352979
99733	100	716	19	1	17	32	0	6	0	0	0	stim001_stimuli_original_animals_birds_1.png	G	d	383.910732101183	1	383.718965984648	383.918971397216
99833	100	717	19	1	17	33	13	15	0	0	0	stim014_stimuli_original_vehicles_planes_2.png	Y	0	0	0	384.118978028884	384.318955159513
99933	100	718	19	1	17	34	5	10	0	0	0	stim006_stimuli_original_animals_fish_2.png	Q	0	0	0	384.518962278729	384.718968422618
100033	100	719	19	1	17	35	3	5	0	0	0	stim004_stimuli_original_animals_birds_4.png	F	0	0	0	384.918971397216	385.119422005722
102570.5	100	720	20	0	37	0	1	6	0	0	0	stim002_stimuli_original_animals_birds_2.png	G	0	0	0	395.069250168977	395.269252412021
102670.5	100	721	20	0	37	1	5	3	0	0	0	stim006_stimuli_original_animals_fish_2.png	D	0	0	0	395.469285374973	395.669290056219
102770.5	100	722	20	0	37	2	2	15	0	0	0	stim003_stimuli_original_animals_birds_3.png	Y	0	0	0	395.869295956334	396.069300881354
102870.5	100	723	20	0	37	3	3	4	0	0	0	stim004_stimuli_original_animals_birds_4.png	E	0	0	0	396.269314339617	396.469309755834
102970.5	100	724	20	0	37	4	11	8	0	0	0	stim012_stimuli_original_vehicles_boats_4.png	K	0	0	0	396.669321507448	396.869320337195
103070.5	100	725	20	0	37	5	15	2	0	0	0	stim016_stimuli_original_vehicles_planes_4.png	C	0	0	0	397.069327944191	397.26933408808
103170.5	100	726	20	0	37	6	8	5	0	0	0	stim009_stimuli_original_vehicles_boats_1.png	F	0	0	0	397.469319508411	397.669324676972
103270.5	100	727	20	0	37	7	13	9	0	0	0	stim014_stimuli_original_vehicles_planes_2.png	L	0	0	0	397.869351301109	398.069321848918
103370.5	100	728	20	0	37	8	10	0	0	0	0	stim011_stimuli_original_vehicles_boats_3.png	A	0	0	0	398.269327505259	398.469341451069
103470.5	100	729	20	0	37	9	1	10	1	0	0	stim002_stimuli_original_animals_birds_2.png	Q	0	0	0	398.669348082738	398.869350569556
103570.5	100	730	20	0	37	10	4	2	0	1	0	stim005_stimuli_original_animals_fish_1.png	C	0	0	0	399.069348424207	399.269359444268
103670.5	100	731	20	0	37	11	1	14	1	0	1	stim002_stimuli_original_animals_birds_2.png	V	0	0	0	399.469366563484	399.669731107308
103770.5	100	732	20	0	37	12	12	2	0	1	0	stim013_stimuli_original_vehicles_planes_1.png	C	0	0	0	399.869386653416	400.069391334662
103870.5	100	733	20	0	37	13	6	7	0	0	0	stim007_stimuli_original_animals_fish_3.png	J	0	0	0	400.269416008145	400.469415812986
103970.5	100	734	20	0	37	14	14	11	0	0	0	stim015_stimuli_original_vehicles_planes_3.png	R	0	0	0	400.669428052381	400.869428588543
104070.5	100	735	20	0	37	15	0	12	0	0	0	stim001_stimuli_original_animals_birds_1.png	T	0	0	0	401.069431319367	401.269436975708
104170.5	100	736	20	0	37	16	7	13	0	0	0	stim008_stimuli_original_animals_fish_4.png	U	0	0	0	401.469421420712	401.669414642733
104270.5	100	737	20	0	37	17	9	1	0	0	0	stim010_stimuli_original_vehicles_boats_2.png	B	0	0	0	401.8694259068	402.06943034404
104370.5	100	738	20	0	37	18	1	9	0	0	0	stim002_stimuli_original_animals_birds_2.png	L	0	0	0	402.26945014135	402.469468232011
104470.5	100	739	20	0	37	19	13	7	0	0	0	stim014_stimuli_original_vehicles_planes_2.png	J	d	402.869647041894	0	402.669484128477	402.869480520021
104570.5	100	740	20	0	37	20	12	0	0	0	0	stim013_stimuli_original_vehicles_planes_1.png	A	0	0	0	403.069472035393	403.269490126055
104670.5	100	741	20	0	37	21	11	14	0	0	0	stim012_stimuli_original_vehicles_boats_4.png	V	0	0	0	403.469483592082	403.669511435088
104770.5	100	742	20	0	37	22	7	6	0	0	0	stim008_stimuli_original_animals_fish_4.png	G	0	0	0	403.869510508608	404.069486420136
104870.5	100	743	20	0	37	23	2	12	1	0	0	stim003_stimuli_original_animals_birds_3.png	T	0	0	0	404.269528404344	404.469504803419
104970.5	100	744	20	0	37	24	14	1	0	1	0	stim015_stimuli_original_vehicles_planes_3.png	B	0	0	0	404.669539229479	404.869508801959
105070.5	100	745	20	0	37	25	2	4	1	0	1	stim003_stimuli_original_animals_birds_3.png	E	0	0	0	405.069528111722	405.269547665259
105170.5	100	746	20	0	37	26	10	1	0	1	0	stim011_stimuli_original_vehicles_boats_3.png	B	0	0	0	405.469554784475	405.66955483309
105270.5	100	747	20	0	37	27	0	10	0	0	0	stim001_stimuli_original_animals_birds_1.png	Q	0	0	0	405.869562440086	406.069566146005
105370.5	100	748	20	0	37	28	9	13	0	0	0	stim010_stimuli_original_vehicles_boats_2.png	U	0	0	0	406.269549128134	406.469551371178
105470.5	100	749	20	0	37	29	5	8	0	0	0	stim006_stimuli_original_animals_fish_2.png	K	0	0	0	406.669588234974	406.869590234244
105570.5	100	750	20	0	37	30	2	15	0	0	0	stim003_stimuli_original_animals_birds_3.png	Y	0	0	0	407.069572241278	407.269629828865
105670.5	100	751	20	0	37	31	8	11	0	0	0	stim009_stimuli_original_vehicles_boats_1.png	R	0	0	0	407.46960427775	407.669614322716
105770.5	100	752	20	0	37	32	4	3	0	0	0	stim005_stimuli_original_animals_fish_1.png	D	0	0	0	407.869600230595	408.069602473639
105870.5	100	753	20	0	37	33	15	2	0	0	0	stim016_stimuli_original_vehicles_planes_4.png	C	0	0	0	408.269610080402	408.469634022564
105970.75	100	754	20	0	37	34	3	5	0	0	0	stim004_stimuli_original_animals_birds_4.png	F	0	0	0	408.669637240702	408.869634851348
106070.75	100	755	20	0	37	35	6	1	0	0	0	stim007_stimuli_original_animals_fish_3.png	B	0	0	0	409.069649041165	409.269650308881
106770.75	100	756	21	1	41	0	8	8	0	0	0	stim009_stimuli_original_vehicles_boats_1.png	K	0	0	0	411.869730668608	412.069729498355
106870.75	100	757	21	1	41	1	5	14	0	0	0	stim006_stimuli_original_animals_fish_2.png	V	0	0	0	412.269743931713	412.469744955888
106970.75	100	758	21	1	41	2	15	9	0	0	0	stim016_stimuli_original_vehicles_planes_4.png	L	0	0	0	412.669753050199	412.869752855273
107070.75	100	759	21	1	41	3	13	11	0	0	0	stim014_stimuli_original_vehicles_planes_2.png	R	0	0	0	413.069749003043	413.269753684057
107170.75	100	760	21	1	41	4	9	1	0	0	0	stim010_stimuli_original_vehicles_boats_2.png	B	0	0	0	413.46976470435	413.669740372105
107270.75	100	761	21	1	41	5	0	4	0	0	0	stim001_stimuli_original_animals_birds_1.png	E	0	0	0	413.869755537016	414.069790694397
107370.75	100	762	21	1	41	6	12	3	1	0	0	stim013_stimuli_original_vehicles_planes_1.png	D	0	0	0	414.269791474566	414.469795180485
107470.75	100	763	21	1	41	7	3	8	0	1	0	stim004_stimuli_original_animals_birds_4.png	K	0	0	0	414.669819853967	414.869797959924
107570.75	100	764	21	1	41	8	12	7	1	0	0	stim013_stimuli_original_vehicles_planes_1.png	J	d	415.062420579139	0	415.069788743975	415.269790011691
107670.75	100	765	21	1	41	9	7	8	0	1	1	stim008_stimuli_original_animals_fish_4.png	K	0	0	0	415.469797374913	415.669799130177
107770.75	100	766	21	1	41	10	14	13	0	0	0	stim015_stimuli_original_vehicles_planes_3.png	U	d	416.061560906935	1	415.869797472376	416.069834580179
107870.75	100	767	21	1	41	11	2	6	0	0	0	stim003_stimuli_original_animals_birds_3.png	G	0	0	0	416.269818293629	416.469823218649
107970.75	100	768	21	1	41	12	11	12	0	0	0	stim012_stimuli_original_vehicles_boats_4.png	T	0	0	0	416.669822048396	416.869835994206
108070.75	100	769	21	1	41	13	1	10	0	0	0	stim002_stimuli_original_animals_birds_2.png	Q	0	0	0	417.069841163	417.26984267449
108170.75	100	770	21	1	41	14	12	15	0	0	0	stim013_stimuli_original_vehicles_planes_1.png	Y	0	0	0	417.470058250939	417.669890802586
108270.75	100	771	21	1	41	15	10	5	0	0	0	stim011_stimuli_original_vehicles_boats_3.png	F	0	0	0	417.869891826529	418.069873589557
108370.75	100	772	21	1	41	16	6	2	0	0	0	stim007_stimuli_original_animals_fish_3.png	C	0	0	0	418.269898019265	418.469882951817
108470.75	100	773	21	1	41	17	4	0	0	0	0	stim005_stimuli_original_animals_fish_1.png	A	0	0	0	418.669894703431	418.869893289404
108570.75	100	774	21	1	41	18	0	4	0	0	0	stim001_stimuli_original_animals_birds_1.png	E	0	0	0	419.069907722995	419.26992313168
108670.75	100	775	21	1	41	19	2	6	0	0	0	stim003_stimuli_original_animals_birds_3.png	G	0	0	0	419.469929519575	419.669934444362
108770.75	100	776	21	1	41	20	5	10	0	0	0	stim006_stimuli_original_animals_fish_2.png	Q	0	0	0	419.869919864694	420.069942587754
108870.75	100	777	21	1	41	21	15	12	0	0	0	stim016_stimuli_original_vehicles_planes_4.png	T	0	0	0	420.269925082102	420.469928300474
108970.75	100	778	21	1	41	22	10	1	0	0	0	stim011_stimuli_original_vehicles_boats_3.png	B	0	0	0	420.669961263426	420.869967163773
109070.75	100	779	21	1	41	23	12	11	0	0	0	stim013_stimuli_original_vehicles_planes_1.png	R	0	0	0	421.069971357239	421.269959703088
109170.75	100	780	21	1	41	24	6	2	0	0	0	stim007_stimuli_original_animals_fish_3.png	C	0	0	0	421.46998437657	421.669985888293
109270.75	100	781	21	1	41	25	13	14	0	0	0	stim014_stimuli_original_vehicles_planes_2.png	V	0	0	0	421.870001784526	422.069997688523
109370.75	100	782	21	1	41	26	8	7	1	0	0	stim009_stimuli_original_vehicles_boats_1.png	J	0	0	0	422.269978720229	422.46997243003
109470.75	100	783	21	1	41	27	7	12	0	1	0	stim008_stimuli_original_animals_fish_4.png	T	0	0	0	422.669980524341	422.870423087385
109570.75	100	784	21	1	41	28	8	3	1	0	0	stim009_stimuli_original_vehicles_boats_1.png	D	0	0	0	423.070024020039	423.270022118231
109670.75	100	785	21	1	41	29	3	12	0	1	1	stim004_stimuli_original_animals_birds_4.png	T	0	0	0	423.470026555704	423.670035869116
109770.75	100	786	21	1	41	30	4	0	0	0	0	stim005_stimuli_original_animals_fish_1.png	A	d	423.862587295938	1	423.870040306589	424.070041574305
109870.75	100	787	21	1	41	31	1	9	0	0	0	stim002_stimuli_original_animals_birds_2.png	L	0	0	0	424.270049912622	424.470050205244
109970.75	100	788	21	1	41	32	11	13	0	0	0	stim012_stimuli_original_vehicles_boats_4.png	U	0	0	0	424.67004903499	424.870045182761
110070.75	100	789	21	1	41	33	9	15	0	0	0	stim010_stimuli_original_vehicles_boats_2.png	Y	0	0	0	425.070044500055	425.270047230646
110170.75	100	790	21	1	41	34	14	5	0	0	0	stim015_stimuli_original_vehicles_planes_3.png	F	0	0	0	425.470053374767	425.670067320578
110270.75	100	791	21	1	41	35	8	8	0	0	0	stim009_stimuli_original_vehicles_boats_1.png	K	0	0	0	425.870101015083	426.070085460087
111025	100	792	22	0	13	0	7	13	0	0	0	stim008_stimuli_original_animals_fish_4.png	U	0	0	0	428.886869008886	429.086852234788
111125	100	793	22	0	13	1	6	8	0	0	0	stim007_stimuli_original_animals_fish_3.png	K	0	0	0	429.286883491324	429.486858671531
111225	100	794	22	0	13	2	11	11	0	0	0	stim012_stimuli_original_vehicles_boats_4.png	R	0	0	0	429.686867009616	429.886861206964
111325	100	795	22	0	13	3	9	2	0	0	0	stim010_stimuli_original_vehicles_boats_2.png	C	0	0	0	430.086859549163	430.287374279695
111425	100	796	22	0	13	4	14	1	0	0	0	stim015_stimuli_original_vehicles_planes_3.png	B	0	0	0	430.486889391439	430.686880419264
111525	100	797	22	0	13	5	10	5	1	1	0	stim011_stimuli_original_vehicles_boats_3.png	F	0	0	0	430.88689046423	431.086885636672
