onset	duration	eventnumber	sequencenumber	condition	streamnumber	stimnumber	objectstimnumber	letterstimnumber	objecttarget	lettertarget	is2back	objectstim	letterstim	response	rt	correct	time_stimon	time_stimoff
12067.75	100	0	0	1	26	0	14	14	0	0	0	stim015_stimuli_original_vehicles_planes_3.png	V	0	0	0	33.0369178683031	33.2369137722999
12167.75	100	1	0	1	26	1	10	11	0	0	0	stim011_stimuli_original_vehicles_boats_3.png	R	0	0	0	33.4369255239144	33.6378366886638
12267.75	100	2	0	1	26	2	3	13	0	0	0	stim004_stimuli_original_animals_birds_4.png	U	0	0	0	33.8369402501266	34.0369366416708
12367.75	100	3	0	1	26	3	12	4	0	0	0	stim013_stimuli_original_vehicles_planes_1.png	E	0	0	0	34.2369518065825	34.4369474668056
12467.75	100	4	0	1	26	4	1	15	0	0	0	stim002_stimuli_original_animals_birds_2.png	Y	0	0	0	34.6369540984742	34.8369875492062
12567.75	100	5	0	1	26	5	7	6	0	0	0	stim008_stimuli_original_animals_fish_4.png	G	0	0	0	35.0369946684223	35.2369930103887
12667.75	100	6	0	1	26	6	13	8	0	0	0	stim014_stimuli_original_vehicles_planes_2.png	K	0	0	0	35.4370037869085	35.6369796984363
12767.75	100	7	0	1	26	7	1	2	1	0	0	stim002_stimuli_original_animals_birds_2.png	C	0	0	0	35.8369858425576	36.0369875978213
12867.75	100	8	0	1	26	8	2	12	0	0	0	stim003_stimuli_original_animals_birds_3.png	T	0	0	0	36.2369864275679	36.4369945221115
12967.75	100	9	0	1	26	9	1	15	1	1	0	stim002_stimuli_original_animals_birds_2.png	Y	0	0	0	36.6370416260324	36.8370072976686
13067.75	100	10	0	1	26	10	8	9	0	0	0	stim009_stimuli_original_vehicles_boats_1.png	L	d	37.2287827278487	0	37.0370141731109	37.2370195856784
13167.75	100	11	0	1	26	11	5	15	0	1	1	stim006_stimuli_original_animals_fish_2.png	Y	0	0	0	37.437035482144	37.637035530759
13267.75	100	12	0	1	26	12	0	5	0	0	0	stim001_stimuli_original_animals_birds_1.png	F	0	0	0	37.8370309472084	38.0370361160021
13367.75	100	13	0	1	26	13	6	7	0	0	0	stim007_stimuli_original_animals_fish_3.png	J	0	0	0	38.237040553242	38.437045478262
13467.75	100	14	0	1	26	14	9	1	0	0	0	stim010_stimuli_original_vehicles_boats_2.png	B	0	0	0	38.6370589365251	38.8370567909442
13567.75	100	15	0	1	26	15	11	3	0	0	0	stim012_stimuli_original_vehicles_boats_4.png	D	0	0	0	39.0370646417141	39.2370671285316
13667.75	100	16	0	1	26	16	4	0	0	0	0	stim005_stimuli_original_animals_fish_1.png	A	0	0	0	39.4370774172712	39.637083317386
13767.75	100	17	0	1	26	17	15	10	0	0	0	stim016_stimuli_original_vehicles_planes_4.png	Q	0	0	0	39.8370958005544	40.0370924358722
13867.75	100	18	0	1	26	18	10	15	0	0	0	stim011_stimuli_original_vehicles_boats_3.png	Y	0	0	0	40.2370963855647	40.4370986286085
13967.75	100	19	0	1	26	19	0	4	0	0	0	stim001_stimuli_original_animals_birds_1.png	E	0	0	0	40.6371055040509	40.8371077470947
14067.75	100	20	0	1	26	20	3	11	0	0	0	stim004_stimuli_original_animals_birds_4.png	R	0	0	0	41.0371163291857	41.2371178409085
14167.75	100	21	0	1	26	21	1	9	0	0	0	stim002_stimuli_original_animals_birds_2.png	L	0	0	0	41.4371276421007	41.6371613366064
14267.75	100	22	0	1	26	22	7	6	0	0	0	stim008_stimuli_original_animals_fish_4.png	G	0	0	0	41.8371679680422	42.0371468055528
14367.75	100	23	0	1	26	23	5	0	0	0	0	stim006_stimuli_original_animals_fish_2.png	A	0	0	0	42.2371483170427	42.4371622630861
14467.75	100	24	0	1	26	24	15	5	1	0	0	stim016_stimuli_original_vehicles_planes_4.png	F	0	0	0	42.6371635308024	42.8371721128933
14567.75	100	25	0	1	26	25	9	8	0	0	0	stim010_stimuli_original_vehicles_boats_2.png	K	0	0	0	43.037180938758	43.2371763552073
14667.75	100	26	0	1	26	26	15	1	1	1	0	stim016_stimuli_original_vehicles_planes_4.png	B	0	0	0	43.437185181072	43.6371893745381
14767.75	100	27	0	1	26	27	12	2	0	0	0	stim013_stimuli_original_vehicles_planes_1.png	C	0	0	0	43.8372042956762	44.0372067824937
14867.75	100	28	0	1	26	28	2	1	0	1	1	stim003_stimuli_original_animals_birds_3.png	B	0	0	0	44.2372126828413	44.4372156572063
14967.75	100	29	0	1	26	29	8	13	0	0	0	stim009_stimuli_original_vehicles_boats_1.png	U	d	44.8289874300826	1	44.6372218013275	44.8372245319188
15067.75	100	30	0	1	26	30	6	7	0	0	0	stim007_stimuli_original_animals_fish_3.png	J	0	0	0	45.0372340893373	45.2372380390298
15167.75	100	31	0	1	26	31	15	1	0	0	0	stim016_stimuli_original_vehicles_planes_4.png	B	0	0	0	45.4372444266919	45.6372474012896
15267.75	100	32	0	1	26	32	4	12	0	0	0	stim005_stimuli_original_animals_fish_1.png	T	0	0	0	45.8372559833806	46.0372640776914
15367.75	100	33	0	1	26	33	13	3	0	0	0	stim014_stimuli_original_vehicles_planes_2.png	D	0	0	0	46.2372597379144	46.4372685637791
15467.75	100	34	0	1	26	34	11	10	0	0	0	stim012_stimuli_original_vehicles_boats_4.png	Q	0	0	0	46.6372700755019	46.837275731843
15567.75	100	35	0	1	26	35	14	14	0	0	0	stim015_stimuli_original_vehicles_planes_3.png	V	0	0	0	47.0373164967168	47.2372836312279
16355.25	100	36	1	0	33	0	0	1	0	0	0	stim001_stimuli_original_animals_birds_1.png	B	0	0	0	50.1873707200866	50.3873675991781
16455.25	100	37	1	0	33	1	15	2	0	0	0	stim016_stimuli_original_vehicles_planes_4.png	C	0	0	0	50.5873815452214	50.7873735481407
16555.25	100	38	1	0	33	2	3	12	0	0	0	stim004_stimuli_original_animals_birds_4.png	T	0	0	0	50.9873884692788	51.1875955122523
16655.25	100	39	1	0	33	3	8	6	0	0	0	stim009_stimuli_original_vehicles_boats_1.png	G	0	0	0	51.3873990506399	51.587402512785
16755.25	100	40	1	0	33	4	7	10	0	0	0	stim008_stimuli_original_animals_fish_4.png	Q	0	0	0	51.7874076815788	51.987393345451
16855.25	100	41	1	0	33	5	11	13	0	0	0	stim012_stimuli_original_vehicles_boats_4.png	U	0	0	0	52.1874260648619	52.3874436677434
16955.25	100	42	1	0	33	6	5	11	0	0	0	stim006_stimuli_original_animals_fish_2.png	R	0	0	0	52.5874307947233	52.7874386452604
17055.25	100	43	1	0	33	7	9	14	0	0	0	stim010_stimuli_original_vehicles_boats_2.png	V	0	0	0	52.987444545608	53.1874455695506
17155.25	100	44	1	0	33	8	3	5	1	0	0	stim004_stimuli_original_animals_birds_4.png	F	0	0	0	53.3874522012193	53.5874559071381
17255.25	100	45	1	0	33	9	14	3	0	0	0	stim015_stimuli_original_vehicles_planes_3.png	D	d	53.979240114335	0	53.7874642454553	53.9874859931879
17355.25	100	46	1	0	33	10	3	7	1	0	1	stim004_stimuli_original_animals_birds_4.png	J	0	0	0	54.1874750705902	54.3874758507591
17455.25	100	47	1	0	33	11	12	4	0	0	0	stim013_stimuli_original_vehicles_planes_1.png	E	0	0	0	54.5874863832723	54.7874888700899
17555.25	100	48	1	0	33	12	10	9	0	1	0	stim011_stimuli_original_vehicles_boats_3.png	L	0	0	0	54.9874957455322	55.1874899428803
17655.25	100	49	1	0	33	13	13	0	0	0	0	stim014_stimuli_original_vehicles_planes_2.png	A	0	0	0	55.3875060831197	55.5875039375387
17755.25	100	50	1	0	33	14	6	9	0	1	0	stim007_stimuli_original_animals_fish_3.png	L	0	0	0	55.7875134949572	55.9875191512983
17855.5	100	51	1	0	33	15	2	8	0	0	0	stim003_stimuli_original_animals_birds_3.png	K	0	0	0	56.1879287997726	56.3875233936124
17955.25	100	52	1	0	33	16	4	15	0	0	0	stim005_stimuli_original_animals_fish_1.png	Y	0	0	0	56.5875278308522	56.7875308052171
18055.25	100	53	1	0	33	17	1	9	0	0	0	stim002_stimuli_original_animals_birds_2.png	L	0	0	0	56.9875457263552	57.1875438247807
18155.25	100	54	1	0	33	18	9	1	0	0	0	stim010_stimuli_original_vehicles_boats_2.png	B	0	0	0	57.387554357294	57.5875570878852
18255.25	100	55	1	0	33	19	15	4	0	0	0	stim016_stimuli_original_vehicles_planes_4.png	E	0	0	0	57.7875605500303	57.9875610864256
18355.25	100	56	1	0	33	20	8	2	0	0	0	stim009_stimuli_original_vehicles_boats_1.png	C	0	0	0	58.187573569594	58.38758068881
18455.25	100	57	1	0	33	21	9	6	1	0	0	stim010_stimuli_original_vehicles_boats_2.png	G	0	0	0	58.5875802498776	58.7875902948435
18555.25	100	58	1	0	33	22	0	13	0	0	0	stim001_stimuli_original_animals_birds_1.png	U	0	0	0	58.9875918063335	59.1875977066811
18655.25	100	59	1	0	33	23	9	10	1	0	1	stim010_stimuli_original_vehicles_boats_2.png	Q	0	0	0	59.3876026314683	59.5876024365425
18755.25	100	60	1	0	33	24	4	12	0	0	0	stim005_stimuli_original_animals_fish_1.png	T	0	0	0	59.787632717751	59.987621307373
18855.25	100	61	1	0	33	25	7	3	0	1	0	stim008_stimuli_original_animals_fish_4.png	D	0	0	0	60.1876267199405	60.3876299383119
18955.25	100	62	1	0	33	26	3	14	0	0	0	stim004_stimuli_original_animals_birds_4.png	V	0	0	0	60.5876424212474	60.7876366185956
19055.25	100	63	1	0	33	27	5	3	0	1	0	stim006_stimuli_original_animals_fish_2.png	D	0	0	0	60.9876510521863	61.1876528074499
19155.5	100	64	1	0	33	28	14	9	0	0	0	stim015_stimuli_original_vehicles_planes_3.png	L	0	0	0	61.3881082923617	61.5876750918105
19255.25	100	65	1	0	33	29	11	5	0	0	0	stim012_stimuli_original_vehicles_boats_4.png	F	0	0	0	61.7876705080271	61.9876749454997
19355.5	100	66	1	0	33	30	13	11	0	0	0	stim014_stimuli_original_vehicles_planes_2.png	R	0	0	0	62.1876959619112	62.3876835762057
19455.5	100	67	1	0	33	31	10	7	0	0	0	stim011_stimuli_original_vehicles_boats_3.png	J	0	0	0	62.5876987413503	62.787696108222
19555.5	100	68	1	0	33	32	6	8	0	0	0	stim007_stimuli_original_animals_fish_3.png	K	d	62.9802872757427	0	62.9877034712117	63.1877081522252
19655.5	100	69	1	0	33	33	12	3	0	0	0	stim013_stimuli_original_vehicles_planes_1.png	D	0	0	0	63.3877145401202	63.5877279983833
19755.5	100	70	1	0	33	34	2	15	0	0	0	stim003_stimuli_original_animals_birds_3.png	Y	0	0	0	63.787753890967	63.9877400426194
19855.5	100	71	1	0	33	35	1	0	0	0	0	stim002_stimuli_original_animals_birds_2.png	A	0	0	0	64.1877364341635	64.387740383856
20609.5	100	72	2	1	19	0	15	2	0	0	0	stim016_stimuli_original_vehicles_planes_4.png	C	0	0	0	67.2044893119019	67.4044956997968
20709.5	100	73	2	1	19	1	12	4	0	0	0	stim013_stimuli_original_vehicles_planes_1.png	E	0	0	0	67.6045445103664	67.8045123761985
20809.5	100	74	2	1	19	2	4	12	0	0	0	stim005_stimuli_original_animals_fish_1.png	T	0	0	0	68.004534855485	68.2045224700123
20909.75	100	75	2	1	19	3	8	14	0	0	0	stim009_stimuli_original_vehicles_boats_1.png	V	0	0	0	68.4049584500026	68.6045252494514
21009.5	100	76	2	1	19	4	6	11	1	0	0	stim007_stimuli_original_animals_fish_3.png	R	0	0	0	68.8045272487216	69.0045316859614
21109.5	100	77	2	1	19	5	10	13	0	0	0	stim011_stimuli_original_vehicles_boats_3.png	U	0	0	0	69.2045422184747	69.4045466559473
21209.5	100	78	2	1	19	6	6	15	1	0	0	stim007_stimuli_original_animals_fish_3.png	Y	0	0	0	69.6045488989912	69.8045518733561
21309.5	100	79	2	1	19	7	9	0	0	0	0	stim010_stimuli_original_vehicles_boats_2.png	A	0	0	0	70.0045624058694	70.2045641613659
21409.5	100	80	2	1	19	8	1	6	0	0	0	stim002_stimuli_original_animals_birds_2.png	G	0	0	0	70.4045715243556	70.6045713294297
21509.5	100	81	2	1	19	9	0	9	0	0	0	stim001_stimuli_original_animals_birds_1.png	L	0	0	0	70.8045813743956	71.0045862991828
21609.5	100	82	2	1	19	10	6	10	0	0	0	stim007_stimuli_original_animals_fish_3.png	Q	0	0	0	71.2045892737806	71.4045961492229
21709.5	100	83	2	1	19	11	5	7	0	0	0	stim006_stimuli_original_animals_fish_2.png	J	0	0	0	71.6046066817362	71.8046345247421
21809.5	100	84	2	1	19	12	11	6	0	1	0	stim012_stimuli_original_vehicles_boats_4.png	G	0	0	0	72.0046409126371	72.2046429119073
21909.5	100	85	2	1	19	13	3	3	0	0	0	stim004_stimuli_original_animals_birds_4.png	D	0	0	0	72.4046649034135	72.6046322816983
22009.5	100	86	2	1	19	14	2	6	0	1	1	stim003_stimuli_original_animals_birds_3.png	G	d	72.797264653258	1	72.8046340371948	73.004636767786
22109.5	100	87	2	1	19	15	7	5	0	0	0	stim008_stimuli_original_animals_fish_4.png	F	0	0	0	73.204643155681	73.4046644158661
22209.5	100	88	2	1	19	16	14	8	0	0	0	stim015_stimuli_original_vehicles_planes_3.png	K	0	0	0	73.6046639769338	73.8046603684779
22309.5	100	89	2	1	19	17	13	1	0	0	0	stim014_stimuli_original_vehicles_planes_2.png	B	0	0	0	74.0046718763188	74.2046665614471
22409.5	100	90	2	1	19	18	1	13	0	0	0	stim002_stimuli_original_animals_birds_2.png	U	0	0	0	74.4046880654059	74.6046798245516
22509.5	100	91	2	1	19	19	8	14	0	0	0	stim009_stimuli_original_vehicles_boats_1.png	V	0	0	0	74.8046901132911	75.0046894305851
22609.5	100	92	2	1	19	20	5	7	0	0	0	stim006_stimuli_original_animals_fish_2.png	J	0	0	0	75.2046999633312	75.4047061072197
22709.75	100	93	2	1	19	21	6	2	1	0	0	stim007_stimuli_original_animals_fish_3.png	C	0	0	0	75.6047380950768	75.8047361932695
22809.75	100	94	2	1	19	22	3	3	0	0	0	stim004_stimuli_original_animals_birds_4.png	D	0	0	0	76.0047438002657	76.2047492128331
22909.5	100	95	2	1	19	23	6	11	1	0	0	stim007_stimuli_original_animals_fish_3.png	R	0	0	0	76.4047387777828	76.604734437773
23009.5	100	96	2	1	19	24	7	5	0	0	0	stim008_stimuli_original_animals_fish_4.png	F	0	0	0	76.804740825668	77.0047418496106
23109.75	100	97	2	1	19	25	10	6	0	0	0	stim011_stimuli_original_vehicles_boats_3.png	G	0	0	0	77.2047509194817	77.4047704730183
23209.75	100	98	2	1	19	26	9	0	0	0	0	stim010_stimuli_original_vehicles_boats_2.png	A	0	0	0	77.604760769289	77.8047715455759
23309.75	100	99	2	1	19	27	6	1	0	0	0	stim007_stimuli_original_animals_fish_3.png	B	0	0	0	78.0047720819712	78.2047716432717
23409.75	100	100	2	1	19	28	0	9	0	0	0	stim001_stimuli_original_animals_birds_1.png	L	0	0	0	78.4047880272847	78.6047844188288
23509.75	100	101	2	1	19	29	15	6	0	1	0	stim016_stimuli_original_vehicles_planes_4.png	G	0	0	0	78.8047998275142	79.0047945126425
23609.75	100	102	2	1	19	30	13	10	0	0	0	stim014_stimuli_original_vehicles_planes_2.png	Q	0	0	0	79.2048009003047	79.4048065566458
23709.75	100	103	2	1	19	31	11	6	0	1	1	stim012_stimuli_original_vehicles_boats_4.png	G	0	0	0	79.6048153825104	79.8048151875846
23809.75	100	104	2	1	19	32	14	8	0	0	0	stim015_stimuli_original_vehicles_planes_3.png	K	0	0	0	80.0048288896214	80.204827719368
23909.75	100	105	2	1	19	33	12	4	0	0	0	stim013_stimuli_original_vehicles_planes_1.png	E	0	0	0	80.4048358139116	80.6048383007292
24009.75	100	106	2	1	19	34	4	12	0	0	0	stim005_stimuli_original_animals_fish_1.png	T	0	0	0	80.8048434695229	81.0048483943101
24109.75	100	107	2	1	19	35	2	15	0	0	0	stim003_stimuli_original_animals_birds_3.png	Y	0	0	0	81.2048730680253	81.4048640958499
24830.5	100	108	3	0	31	0	10	1	0	0	0	stim011_stimuli_original_vehicles_boats_3.png	B	0	0	0	84.088271937333	84.2882707668468
24930.5	100	109	3	0	31	1	12	10	0	0	0	stim013_stimuli_original_vehicles_planes_1.png	Q	0	0	0	84.4882852004375	84.6882893939037
25030.5	100	110	3	0	31	2	14	0	0	0	0	stim015_stimuli_original_vehicles_planes_3.png	A	0	0	0	84.8883072407916	85.0882938799914
25130.5	100	111	3	0	31	3	11	5	0	0	0	stim012_stimuli_original_vehicles_boats_4.png	F	0	0	0	85.2882929535117	85.4883003167342
25230.5	100	112	3	0	31	4	9	3	0	0	0	stim010_stimuli_original_vehicles_boats_2.png	D	0	0	0	85.6883093863726	85.8884879036341
25330.5	100	113	3	0	31	5	4	6	0	0	0	stim005_stimuli_original_animals_fish_1.png	G	0	0	0	86.08831972396	86.2883202603552
25430.5	100	114	3	0	31	6	8	15	0	1	0	stim009_stimuli_original_vehicles_boats_1.png	Y	0	0	0	86.4883256729227	86.6883379120845
25530.5	100	115	3	0	31	7	7	2	0	0	0	stim008_stimuli_original_animals_fish_4.png	C	d	86.8809488283005	0	86.8883430808783	87.0883628781885
25630.5	100	116	3	0	31	8	0	15	0	1	0	stim001_stimuli_original_animals_birds_1.png	Y	0	0	0	87.288340496365	87.4883420080878
25730.5	100	117	3	0	31	9	6	13	0	0	0	stim007_stimuli_original_animals_fish_3.png	U	0	0	0	87.6883817978669	87.8883642922156
25830.5	100	118	3	0	31	10	4	8	1	0	0	stim005_stimuli_original_animals_fish_1.png	K	0	0	0	88.088386771502	88.2883751173504
25930.5	100	119	3	0	31	11	15	9	0	0	0	stim016_stimuli_original_vehicles_planes_4.png	L	0	0	0	88.4883802861441	88.6883905748837
26030.5	100	120	3	0	31	12	4	14	1	0	1	stim005_stimuli_original_animals_fish_1.png	V	0	0	0	88.8883867226541	89.0884196858387
26130.5	100	121	3	0	31	13	1	12	0	0	0	stim002_stimuli_original_animals_birds_2.png	T	0	0	0	89.2884080316871	89.48840320413
26230.5	100	122	3	0	31	14	13	7	0	0	0	stim014_stimuli_original_vehicles_planes_2.png	J	0	0	0	89.6884091044776	89.8884162236936
26330.5	100	123	3	0	31	15	3	15	0	0	0	stim004_stimuli_original_animals_birds_4.png	Y	0	0	0	90.088425293332	90.2884226602037
26430.5	100	124	3	0	31	16	2	11	0	0	0	stim003_stimuli_original_animals_birds_3.png	R	0	0	0	90.4884275852237	90.6884322662372
26530.5	100	125	3	0	31	17	5	4	0	0	0	stim006_stimuli_original_animals_fish_2.png	E	0	0	0	90.8884459685069	91.0884560134728
26630.5	100	126	3	0	31	18	4	5	0	0	0	stim005_stimuli_original_animals_fish_1.png	F	0	0	0	91.2884628886823	91.4884556231555
26730.5	100	127	3	0	31	19	11	2	0	0	0	stim012_stimuli_original_vehicles_boats_4.png	C	d	91.880227152491	0	91.6884659121279	91.8884686427191
26830.5	100	128	3	0	31	20	15	3	0	0	0	stim016_stimuli_original_vehicles_planes_4.png	D	0	0	0	92.0884847829584	92.288485806901
26930.5	100	129	3	0	31	21	7	13	0	0	0	stim008_stimuli_original_animals_fish_4.png	U	0	0	0	92.4884875623975	92.6884976073634
27030.5	100	130	3	0	31	22	12	1	0	0	0	stim013_stimuli_original_vehicles_planes_1.png	B	0	0	0	92.8884996064007	93.0884925848804
27130.5	100	131	3	0	31	23	14	4	0	1	0	stim015_stimuli_original_vehicles_planes_3.png	E	0	0	0	93.2885126259644	93.4885175507516
27230.5	100	132	3	0	31	24	9	15	0	0	0	stim010_stimuli_original_vehicles_boats_2.png	Y	d	93.6811213965993	0	93.6885344225448	93.8885261816904
27330.5	100	133	3	0	31	25	8	4	0	1	0	stim009_stimuli_original_vehicles_boats_1.png	E	0	0	0	94.0885123333428	94.2885401763488
27430.5	100	134	3	0	31	26	13	6	0	0	0	stim014_stimuli_original_vehicles_planes_2.png	G	0	0	0	94.4885648498312	94.6885461253114
27530.5	100	135	3	0	31	27	15	0	1	0	0	stim016_stimuli_original_vehicles_planes_4.png	A	0	0	0	94.8885739683174	95.0885762113612
27630.5	100	136	3	0	31	28	2	7	0	0	0	stim003_stimuli_original_animals_birds_3.png	J	d	95.4803316490725	0	95.2885648012161	95.4885641185101
27730.5	100	137	3	0	31	29	15	8	1	0	1	stim016_stimuli_original_vehicles_planes_4.png	K	0	0	0	95.6885744072497	95.8885754311923
27830.5	100	138	3	0	31	30	6	4	0	0	0	stim007_stimuli_original_animals_fish_3.png	E	0	0	0	96.0885866952594	96.2885862563271
27930.75	100	139	3	0	31	31	3	9	0	0	0	stim004_stimuli_original_animals_birds_4.png	L	0	0	0	96.4888196308166	96.6886078091338
28030.5	100	140	3	0	31	32	5	11	0	0	0	stim006_stimuli_original_animals_fish_2.png	R	0	0	0	96.8886132217012	97.088609125698
28130.5	100	141	3	0	31	33	0	14	0	0	0	stim001_stimuli_original_animals_birds_1.png	V	0	0	0	97.2886138069443	97.488615562208
28230.5	100	142	3	0	31	34	10	12	0	0	0	stim011_stimuli_original_vehicles_boats_3.png	T	0	0	0	97.6886326777749	97.8886258997954
28330.5	100	143	3	0	31	35	1	10	0	0	0	stim002_stimuli_original_animals_birds_2.png	Q	0	0	0	98.0886374076363	98.2886457459535
29001.5	100	144	4	1	18	0	4	14	0	0	0	stim005_stimuli_original_animals_fish_1.png	V	0	0	0	100.772039153846	100.972065533977
29101.5	100	145	4	1	18	1	5	12	0	0	0	stim006_stimuli_original_animals_fish_2.png	T	0	0	0	101.172052904731	101.372057585744
29201.5	100	146	4	1	18	2	2	0	0	0	0	stim003_stimuli_original_animals_birds_3.png	A	0	0	0	101.572087623179	101.772088647122
29301.5	100	147	4	1	18	3	3	4	0	0	0	stim004_stimuli_original_animals_birds_4.png	E	0	0	0	101.972093815915	102.17207655427
29401.5	100	148	4	1	18	4	14	9	1	0	0	stim015_stimuli_original_vehicles_planes_3.png	L	0	0	0	102.37206904497	102.572069581365
29501.5	100	149	4	1	18	5	6	8	0	1	0	stim007_stimuli_original_animals_fish_3.png	K	0	0	0	102.77207840723	102.972081137821
29601.5	100	150	4	1	18	6	14	2	1	0	0	stim015_stimuli_original_vehicles_planes_3.png	C	0	0	0	103.172124097124	103.372105128597
29701.5	100	151	4	1	18	7	1	8	0	1	1	stim002_stimuli_original_animals_birds_2.png	K	0	0	0	103.572547447868	103.772119367262
29801.5	100	152	4	1	18	8	10	10	0	0	0	stim011_stimuli_original_vehicles_boats_3.png	Q	d	104.163876023842	1	103.972108688205	104.172125072218
29901.5	100	153	4	1	18	9	7	1	0	0	0	stim008_stimuli_original_animals_fish_4.png	B	0	0	0	104.372131703887	104.572134190705
30001.5	100	154	4	1	18	10	14	11	0	0	0	stim015_stimuli_original_vehicles_planes_3.png	R	0	0	0	104.772133507999	104.972144528292
30101.5	100	155	4	1	18	11	13	8	0	0	0	stim014_stimuli_original_vehicles_planes_2.png	K	0	0	0	105.172180660767	105.372183879139
30201.5	100	156	4	1	18	12	9	15	0	0	0	stim010_stimuli_original_vehicles_boats_2.png	Y	0	0	0	105.57219538698	105.772170079406
30301.5	100	157	4	1	18	13	8	6	0	0	0	stim009_stimuli_original_vehicles_boats_1.png	G	0	0	0	105.972159644356	106.172176516149
30401.5	100	158	4	1	18	14	15	3	0	0	0	stim016_stimuli_original_vehicles_planes_4.png	D	0	0	0	106.372175589669	106.572185390629
30501.5	100	159	4	1	18	15	11	13	0	0	0	stim012_stimuli_original_vehicles_boats_4.png	U	0	0	0	106.772191290976	106.972192314919
30601.5	100	160	4	1	18	16	12	5	0	0	0	stim013_stimuli_original_vehicles_planes_1.png	F	0	0	0	107.172193826642	107.372207528679
30701.5	100	161	4	1	18	17	0	7	0	0	0	stim001_stimuli_original_animals_birds_1.png	J	0	0	0	107.572240247857	107.772232007002
30801.5	100	162	4	1	18	18	7	0	0	0	0	stim008_stimuli_original_animals_fish_4.png	A	0	0	0	107.972221328178	108.172256973106
30901.5	100	163	4	1	18	19	5	12	0	0	0	stim006_stimuli_original_animals_fish_2.png	T	0	0	0	108.372227277141	108.57222854509
31001.5	100	164	4	1	18	20	13	11	0	0	0	stim014_stimuli_original_vehicles_planes_2.png	R	0	0	0	108.772244197549	108.972714067204
31101.5	100	165	4	1	18	21	3	15	0	0	0	stim004_stimuli_original_animals_birds_4.png	Y	0	0	0	109.172264775028	109.372250439133
31201.5	100	166	4	1	18	22	6	8	0	0	0	stim007_stimuli_original_animals_fish_3.png	K	0	0	0	109.572265116498	109.772272479488
31301.5	100	167	4	1	18	23	15	9	0	0	0	stim016_stimuli_original_vehicles_planes_4.png	L	0	0	0	109.972273990978	110.172275258927
31401.5	100	168	4	1	18	24	8	13	0	0	0	stim009_stimuli_original_vehicles_boats_1.png	U	0	0	0	110.372285303893	110.572299493477
31501.5	100	169	4	1	18	25	11	14	0	0	0	stim012_stimuli_original_vehicles_boats_4.png	V	0	0	0	110.772301248973	110.972307880642
31601.5	100	170	4	1	18	26	1	7	0	0	0	stim002_stimuli_original_animals_birds_2.png	J	0	0	0	111.172304272186	111.37230944098
31701.5	100	171	4	1	18	27	10	10	0	0	0	stim011_stimuli_original_vehicles_boats_3.png	Q	0	0	0	111.572323143017	111.77233123756
31801.5	100	172	4	1	18	28	8	1	1	0	0	stim009_stimuli_original_vehicles_boats_1.png	B	0	0	0	111.972332261503	112.172330115922
31901.5	100	173	4	1	18	29	2	14	0	1	0	stim003_stimuli_original_animals_birds_3.png	V	0	0	0	112.37234503706	112.572344842134
32001.5	100	174	4	1	18	30	8	6	1	0	0	stim009_stimuli_original_vehicles_boats_1.png	G	0	0	0	112.772359031718	112.972377853934
32101.5	100	175	4	1	18	31	9	14	0	1	1	stim010_stimuli_original_vehicles_boats_2.png	V	0	0	0	113.172369856853	113.372367223725
32201.5	100	176	4	1	18	32	4	3	0	0	0	stim005_stimuli_original_animals_fish_1.png	D	0	0	0	113.572377512464	113.772379024187
32301.5	100	177	4	1	18	33	0	2	0	0	0	stim001_stimuli_original_animals_birds_1.png	C	0	0	0	113.972382730106	114.17237960943
32401.5	100	178	4	1	18	34	12	5	0	0	0	stim013_stimuli_original_vehicles_planes_1.png	F	0	0	0	114.37240233249	114.57240676973
32501.5	100	179	4	1	18	35	14	4	0	0	0	stim015_stimuli_original_vehicles_planes_3.png	E	0	0	0	114.772411938524	114.972409549169
33259.75	100	180	5	0	39	0	15	15	0	0	0	stim016_stimuli_original_vehicles_planes_4.png	Y	0	0	0	117.805843088077	118.005818512058
33359.75	100	181	5	0	39	1	6	12	0	0	0	stim007_stimuli_original_animals_fish_3.png	T	0	0	0	118.205830507679	118.405824461021
33459.75	100	182	5	0	39	2	11	13	0	0	0	stim012_stimuli_original_vehicles_boats_4.png	U	0	0	0	118.60583231179	118.805843575858
33559.75	100	183	5	0	39	3	0	1	0	0	0	stim001_stimuli_original_animals_birds_1.png	B	0	0	0	119.005858984543	119.205849768594
33659.75	100	184	5	0	39	4	1	14	0	0	0	stim002_stimuli_original_animals_birds_2.png	V	0	0	0	119.405859082006	119.605865469901
33759.75	100	185	5	0	39	5	13	5	0	0	0	stim014_stimuli_original_vehicles_planes_2.png	F	0	0	0	119.805870150914	120.005874344613
33859.75	100	186	5	0	39	6	3	4	0	0	0	stim004_stimuli_original_animals_birds_4.png	E	d	120.198416262632	0	120.205880244728	120.405891752569
33960	100	187	5	0	39	7	10	7	0	0	0	stim011_stimuli_original_vehicles_boats_3.png	J	0	0	0	120.605917888926	120.805923545267
34060	100	188	5	0	39	8	2	9	0	0	0	stim003_stimuli_original_animals_birds_3.png	L	0	0	0	121.00593042071	121.205900724744
34160	100	189	5	0	39	9	0	0	1	0	0	stim001_stimuli_original_animals_birds_1.png	A	0	0	0	121.40590784396	121.60590935545
34260	100	190	5	0	39	10	14	8	0	0	0	stim015_stimuli_original_vehicles_planes_3.png	K	0	0	0	121.805922813946	122.005924812984
34360	100	191	5	0	39	11	0	7	1	1	1	stim001_stimuli_original_animals_birds_1.png	J	0	0	0	122.205943635199	122.4059314935
34460	100	192	5	0	39	12	8	3	0	0	0	stim009_stimuli_original_vehicles_boats_1.png	D	d	122.598499743035	1	122.605939344037	122.805948901456
34560	100	193	5	0	39	13	5	7	0	1	0	stim006_stimuli_original_animals_fish_2.png	J	0	0	0	123.00595407025	123.205967284739
34660	100	194	5	0	39	14	4	2	0	0	0	stim005_stimuli_original_animals_fish_1.png	C	0	0	0	123.405972209526	123.605964943999
34760	100	195	5	0	39	15	9	11	0	0	0	stim010_stimuli_original_vehicles_boats_2.png	R	0	0	0	123.805976208067	124.005973818712
34860	100	196	5	0	39	16	7	10	0	0	0	stim008_stimuli_original_animals_fish_4.png	Q	0	0	0	124.206002637045	124.406037794426
34960	100	197	5	0	39	17	12	6	0	0	0	stim013_stimuli_original_vehicles_planes_1.png	G	d	124.598698203918	0	124.606004197383	124.80601789942
35060	100	198	5	0	39	18	6	12	0	0	0	stim007_stimuli_original_animals_fish_3.png	T	0	0	0	125.00601989869	125.20601824089
35160	100	199	5	0	39	19	10	7	0	0	0	stim011_stimuli_original_vehicles_boats_3.png	J	0	0	0	125.406027310528	125.606023702072
35260	100	200	5	0	39	20	11	9	0	0	0	stim012_stimuli_original_vehicles_boats_4.png	L	0	0	0	125.806026189122	126.00603769673
35360	100	201	5	0	39	21	2	4	0	0	0	stim003_stimuli_original_animals_birds_3.png	E	0	0	0	126.206050667446	126.406046571443
35460	100	202	5	0	39	22	7	5	1	0	0	stim008_stimuli_original_animals_fish_4.png	F	0	0	0	126.606048083166	126.80605983478
35560	100	203	5	0	39	23	3	8	0	0	0	stim004_stimuli_original_animals_birds_4.png	K	0	0	0	127.006470214808	127.206069684587
35660	100	204	5	0	39	24	7	0	1	1	1	stim008_stimuli_original_animals_fish_4.png	A	0	0	0	127.406082167756	127.606080022175
35760	100	205	5	0	39	25	8	14	0	0	0	stim009_stimuli_original_vehicles_boats_1.png	V	0	0	0	127.806076169945	128.006090115756
35860	100	206	5	0	39	26	0	0	0	1	0	stim001_stimuli_original_animals_birds_1.png	A	0	0	0	128.206089189509	128.406088263029
35960	100	207	5	0	39	27	9	2	0	0	0	stim010_stimuli_original_vehicles_boats_2.png	C	0	0	0	128.606099770637	128.806111278478
36060	100	208	5	0	39	28	7	10	0	0	0	stim008_stimuli_original_animals_fish_4.png	Q	0	0	0	129.006123517873	129.206126979785
36160	100	209	5	0	39	29	4	3	0	0	0	stim005_stimuli_original_animals_fish_1.png	D	0	0	0	129.406149702845	129.606137561146
36260	100	210	5	0	39	30	5	13	0	0	0	stim006_stimuli_original_animals_fish_2.png	U	0	0	0	129.806141023291	130.006133026443
36360	100	211	5	0	39	31	14	1	0	0	0	stim015_stimuli_original_vehicles_planes_3.png	B	0	0	0	130.206158431247	130.406147752423
36460	100	212	5	0	39	32	1	0	0	0	0	stim002_stimuli_original_animals_birds_2.png	A	d	130.598706493387	0	130.606163404882	130.806152238511
36560	100	213	5	0	39	33	13	11	0	0	0	stim014_stimuli_original_vehicles_planes_2.png	R	0	0	0	131.006168622524	131.206179886591
36660	100	214	5	0	39	34	12	6	0	0	0	stim013_stimuli_original_vehicles_planes_1.png	G	0	0	0	131.406181885628	131.606187298195
36760	100	215	5	0	39	35	15	15	0	0	0	stim016_stimuli_original_vehicles_planes_4.png	Y	0	0	0	131.806183202425	132.006195441587
37543.25	100	216	6	1	36	0	13	0	0	0	0	stim014_stimuli_original_vehicles_planes_2.png	A	0	0	0	134.939619130688	135.139633564278
37643.25	100	217	6	1	36	1	0	11	0	0	0	stim001_stimuli_original_animals_birds_1.png	R	0	0	0	135.339641171042	135.539641707437
37743.25	100	218	6	1	36	2	2	9	0	0	0	stim003_stimuli_original_animals_birds_3.png	L	0	0	0	135.739649557974	135.939654726768
37843.25	100	219	6	1	36	3	10	12	0	0	0	stim011_stimuli_original_vehicles_boats_3.png	T	0	0	0	136.139649411896	136.339667990105
37943.25	100	220	6	1	36	4	7	4	0	0	0	stim008_stimuli_original_animals_fish_4.png	E	0	0	0	136.539655116852	136.739675401943
38043.25	100	221	6	1	36	5	11	7	0	0	0	stim012_stimuli_original_vehicles_boats_4.png	J	0	0	0	136.939671062166	137.139678425156
38143.25	100	222	6	1	36	6	12	1	0	0	0	stim013_stimuli_original_vehicles_planes_1.png	B	0	0	0	137.339676035801	137.539683642564
38243.25	100	223	6	1	36	7	14	15	0	0	0	stim015_stimuli_original_vehicles_planes_3.png	Y	0	0	0	137.739693443757	137.939688372426
38343.25	100	224	6	1	36	8	3	13	0	0	0	stim004_stimuli_original_animals_birds_4.png	U	0	0	0	138.139714996563	138.339700416662
38443.25	100	225	6	1	36	9	10	3	1	0	0	stim011_stimuli_original_vehicles_boats_3.png	D	0	0	0	138.539697783533	138.739739767509
38543.25	100	226	6	1	36	10	6	8	0	0	0	stim007_stimuli_original_animals_fish_3.png	K	0	0	0	138.939715435496	139.139722798485
38643.25	100	227	6	1	36	11	10	11	1	1	0	stim011_stimuli_original_vehicles_boats_3.png	R	0	0	0	139.339730161475	139.539735330269
38743.25	100	228	6	1	36	12	1	10	0	0	0	stim002_stimuli_original_animals_birds_2.png	Q	0	0	0	139.739738548407	139.940147221787
38843.25	100	229	6	1	36	13	5	11	0	1	1	stim006_stimuli_original_animals_fish_2.png	R	0	0	0	140.139752299292	140.339740401367
38943.25	100	230	6	1	36	14	8	5	0	0	0	stim009_stimuli_original_vehicles_boats_1.png	F	0	0	0	140.539761905558	140.739762197947
39043.25	100	231	6	1	36	15	4	2	0	0	0	stim005_stimuli_original_animals_fish_1.png	C	0	0	0	140.939780288609	141.139772779308
39143.25	100	232	6	1	36	16	15	14	0	0	0	stim016_stimuli_original_vehicles_planes_4.png	V	0	0	0	141.339782092953	141.539801402483
39243.25	100	233	6	1	36	17	9	6	0	0	0	stim010_stimuli_original_vehicles_boats_2.png	G	0	0	0	141.7398155923	141.939797842875
39343.25	100	234	6	1	36	18	6	9	0	0	0	stim007_stimuli_original_animals_fish_3.png	L	0	0	0	142.139806424966	142.339807449142
39443.25	100	235	6	1	36	19	14	15	0	0	0	stim015_stimuli_original_vehicles_planes_3.png	Y	0	0	0	142.539812373929	142.739819249371
39543.25	100	236	6	1	36	20	2	4	0	0	0	stim003_stimuli_original_animals_birds_3.png	E	0	0	0	142.939827587688	143.139833975583
39643.25	100	237	6	1	36	21	5	8	0	0	0	stim006_stimuli_original_animals_fish_2.png	K	0	0	0	143.33983231755	143.539842850296
39743.25	100	238	6	1	36	22	11	5	1	0	0	stim012_stimuli_original_vehicles_boats_4.png	F	0	0	0	143.739836803637	143.939855869627
39843.25	100	239	6	1	36	23	10	1	0	0	0	stim011_stimuli_original_vehicles_boats_3.png	B	0	0	0	144.139858356444	144.33984767762
39943.25	100	240	6	1	36	24	11	10	1	1	0	stim012_stimuli_original_vehicles_boats_4.png	Q	0	0	0	144.539860648336	144.73985460191
40043.25	100	241	6	1	36	25	8	6	0	0	0	stim009_stimuli_original_vehicles_boats_1.png	G	0	0	0	144.939863915322	145.139870303217
40143.25	100	242	6	1	36	26	3	10	0	1	1	stim004_stimuli_original_animals_birds_4.png	Q	0	0	0	145.339881810825	145.539890636923
40243.25	100	243	6	1	36	27	13	3	0	0	0	stim014_stimuli_original_vehicles_planes_2.png	D	d	145.931664116448	1	145.73989556171	145.939899999183
40343.25	100	244	6	1	36	28	15	14	0	0	0	stim016_stimuli_original_vehicles_planes_4.png	V	0	0	0	146.139915895415	146.339913750067
40443.25	100	245	6	1	36	29	1	12	0	0	0	stim002_stimuli_original_animals_birds_2.png	T	0	0	0	146.539916480659	146.739918723702
40543.25	100	246	6	1	36	30	7	11	0	0	0	stim008_stimuli_original_animals_fish_4.png	R	0	0	0	146.939930231543	147.139931986807
40643.25	100	247	6	1	36	31	4	7	0	0	0	stim005_stimuli_original_animals_fish_1.png	J	0	0	0	147.339939350029	147.539944031043
40743.25	100	248	6	1	36	32	12	10	0	0	0	stim013_stimuli_original_vehicles_planes_1.png	Q	0	0	0	147.739948956063	147.939953637309
40843.25	100	249	6	1	36	33	9	2	0	0	0	stim010_stimuli_original_vehicles_boats_2.png	C	d	148.33173516253	0	148.13996758312	148.339971532812
40943.25	100	250	6	1	36	34	11	0	0	0	0	stim012_stimuli_original_vehicles_boats_4.png	A	0	0	0	148.539970606333	148.739972605603
41043.5	100	251	6	1	36	35	0	13	0	0	0	stim001_stimuli_original_animals_birds_1.png	U	0	0	0	148.939971435349	149.139970752643
41722.5	100	252	7	0	25	0	15	4	0	0	0	stim016_stimuli_original_vehicles_planes_4.png	E	0	0	0	151.65671534068	151.856745134341
41822.5	100	253	7	0	25	1	7	2	0	0	0	stim008_stimuli_original_animals_fish_4.png	C	0	0	0	152.056749815354	152.256738892756
41922.5	100	254	7	0	25	2	10	11	0	0	0	stim011_stimuli_original_vehicles_boats_3.png	R	0	0	0	152.456751619698	152.656734601827
42022.5	100	255	7	0	25	3	13	15	0	0	0	stim014_stimuli_original_vehicles_planes_2.png	Y	0	0	0	152.856748303864	153.056752253557
42122.5	100	256	7	0	25	4	9	10	0	0	0	stim010_stimuli_original_vehicles_boats_2.png	Q	0	0	0	153.256754009053	153.456751863472
42222.5	100	257	7	0	25	5	3	8	0	1	0	stim004_stimuli_original_animals_birds_4.png	K	0	0	0	153.656761908438	153.856768540107
42322.5	100	258	7	0	25	6	14	9	1	0	0	stim015_stimuli_original_vehicles_planes_3.png	L	0	0	0	154.056776390644	154.256774732843
42422.5	100	259	7	0	25	7	1	8	0	1	0	stim002_stimuli_original_animals_birds_2.png	K	d	154.648551138118	0	154.456784290029	154.656785070198
42522.5	100	260	7	0	25	8	14	7	1	0	1	stim015_stimuli_original_vehicles_planes_3.png	J	0	0	0	154.856793408515	155.056794432458
42622.5	100	261	7	0	25	9	12	13	0	0	0	stim013_stimuli_original_vehicles_planes_1.png	U	0	0	0	155.256803989876	155.456807695795
42722.5	100	262	7	0	25	10	0	5	0	0	0	stim001_stimuli_original_animals_birds_1.png	F	0	0	0	155.656821154058	155.856826566625
42822.5	100	263	7	0	25	11	2	14	0	0	0	stim003_stimuli_original_animals_birds_3.png	V	0	0	0	156.056837830693	156.256829589838
42922.5	100	264	7	0	25	12	14	0	0	0	0	stim015_stimuli_original_vehicles_planes_3.png	A	0	0	0	156.4568476805	156.656845778925
43022.5	100	265	7	0	25	13	6	8	0	0	0	stim007_stimuli_original_animals_fish_3.png	K	0	0	0	156.856848021969	157.056851240108
43122.5	100	266	7	0	25	14	4	1	0	0	0	stim005_stimuli_original_animals_fish_1.png	B	d	157.24938730686	0	157.256858603097	157.45686547854
43222.75	100	267	7	0	25	15	11	12	0	0	0	stim012_stimuli_original_vehicles_boats_4.png	T	0	0	0	157.65731974435	157.8568877629
43322.5	100	268	7	0	25	16	8	3	0	0	0	stim009_stimuli_original_vehicles_boats_1.png	D	0	0	0	158.056882935343	158.256884934613
43422.5	100	269	7	0	25	17	5	6	0	0	0	stim006_stimuli_original_animals_fish_2.png	G	0	0	0	158.456888396759	158.6568940531
43522.5	100	270	7	0	25	18	6	5	0	0	0	stim007_stimuli_original_animals_fish_3.png	F	0	0	0	158.85691141244	159.056912192609
43622.5	100	271	7	0	25	19	3	8	0	0	0	stim004_stimuli_original_animals_birds_4.png	K	0	0	0	159.256911753677	159.456913509173
43722.5	100	272	7	0	25	20	12	11	0	0	0	stim013_stimuli_original_vehicles_planes_1.png	R	0	0	0	159.656920140609	159.856928235153
43822.5	100	273	7	0	25	21	1	4	0	0	0	stim002_stimuli_original_animals_birds_2.png	E	0	0	0	160.056944862939	160.25696466025
43922.5	100	274	7	0	25	22	8	6	0	0	0	stim009_stimuli_original_vehicles_boats_1.png	G	0	0	0	160.456951543456	160.656948666321
44022.5	100	275	7	0	25	23	0	14	0	0	0	stim001_stimuli_original_animals_birds_1.png	V	0	0	0	160.856961880811	161.056960710557
44122.5	100	276	7	0	25	24	14	2	0	0	0	stim015_stimuli_original_vehicles_planes_3.png	C	0	0	0	161.256968805101	161.456972267246
44222.5	100	277	7	0	25	25	5	0	0	0	0	stim006_stimuli_original_animals_fish_2.png	A	0	0	0	161.656999866478	161.856989431428
44322.5	100	278	7	0	25	26	13	12	0	0	0	stim014_stimuli_original_vehicles_planes_2.png	T	0	0	0	162.056995087769	162.256991235539
44422.5	100	279	7	0	25	27	7	14	0	1	0	stim008_stimuli_original_animals_fish_4.png	V	0	0	0	162.457000305178	162.657005717745
44522.75	100	280	7	0	25	28	8	1	1	0	0	stim009_stimuli_original_vehicles_boats_1.png	B	d	163.048777490621	0	162.857011861866	163.057349099079
44622.75	100	281	7	0	25	29	9	14	0	1	0	stim010_stimuli_original_vehicles_boats_2.png	V	0	0	0	163.257023418322	163.457027368015
44722.75	100	282	7	0	25	30	8	3	1	0	1	stim009_stimuli_original_vehicles_boats_1.png	D	0	0	0	163.657032536808	163.857035267632
44822.75	100	283	7	0	25	31	10	9	0	0	0	stim011_stimuli_original_vehicles_boats_3.png	L	0	0	0	164.057044093497	164.257046580315
44922.75	100	284	7	0	25	32	15	13	0	0	0	stim016_stimuli_original_vehicles_planes_4.png	U	0	0	0	164.457054918632	164.657057649223
45022.75	100	285	7	0	25	33	11	10	0	0	0	stim012_stimuli_original_vehicles_boats_4.png	Q	0	0	0	164.857067450415	165.057068718132
45122.75	100	286	7	0	25	34	2	7	0	0	0	stim003_stimuli_original_animals_birds_3.png	J	0	0	0	165.257077788003	165.457078324165
45222.75	100	287	7	0	25	35	4	15	0	0	0	stim005_stimuli_original_animals_fish_1.png	Y	d	165.649635358714	1	165.657086418709	165.857088905526
45968.5	100	288	8	1	40	0	6	7	0	0	0	stim007_stimuli_original_animals_fish_3.png	J	0	0	0	168.640507377218	168.840529368725
46068.5	100	289	8	1	40	1	12	2	0	0	0	stim013_stimuli_original_vehicles_planes_1.png	C	0	0	0	169.040508937556	169.240507523529
46168.5	100	290	8	1	40	2	13	14	0	0	0	stim014_stimuli_original_vehicles_planes_2.png	V	0	0	0	169.440511473222	169.64051469136
46268.5	100	291	8	1	40	3	2	10	0	0	0	stim003_stimuli_original_animals_birds_3.png	Q	0	0	0	169.840525955427	170.040528198471
46368.5	100	292	8	1	40	4	9	9	0	0	0	stim010_stimuli_original_vehicles_boats_2.png	L	0	0	0	170.24053483014	170.440959107364
46468.5	100	293	8	1	40	5	15	12	0	1	0	stim016_stimuli_original_vehicles_planes_4.png	T	0	0	0	170.640545411501	170.840551067842
46568.5	100	294	8	1	40	6	11	3	0	0	0	stim012_stimuli_original_vehicles_boats_4.png	D	0	0	0	171.04056306323	171.240561649203
46668.5	100	295	8	1	40	7	8	12	0	1	1	stim009_stimuli_original_vehicles_boats_1.png	T	0	0	0	171.440569255967	171.640575400088
46768.5	100	296	8	1	40	8	4	0	0	0	0	stim005_stimuli_original_animals_fish_1.png	A	0	0	0	171.840583738405	172.040596952662
46868.5	100	297	8	1	40	9	10	4	0	0	0	stim011_stimuli_original_vehicles_boats_3.png	E	d	172.233152768109	1	172.240589199588	172.440608021803
46968.5	100	298	8	1	40	10	13	5	1	0	0	stim014_stimuli_original_vehicles_planes_2.png	F	0	0	0	172.640603682026	172.840599342017
47068.5	100	299	8	1	40	11	3	11	0	0	0	stim004_stimuli_original_animals_birds_4.png	R	0	0	0	173.040628891904	173.240650639636
47168.5	100	300	8	1	40	12	13	15	1	0	0	stim014_stimuli_original_vehicles_planes_2.png	Y	0	0	0	173.440621674992	173.640626600012
47268.5	100	301	8	1	40	13	5	1	0	0	0	stim006_stimuli_original_animals_fish_2.png	B	0	0	0	173.840634450549	174.040637181373
47368.5	100	302	8	1	40	14	14	12	0	0	0	stim015_stimuli_original_vehicles_planes_3.png	T	0	0	0	174.240640643518	174.440650444478
47468.5	100	303	8	1	40	15	7	13	0	0	0	stim008_stimuli_original_animals_fish_4.png	U	0	0	0	174.640649762005	174.84065273637
47568.5	100	304	8	1	40	16	1	6	0	0	0	stim002_stimuli_original_animals_birds_2.png	G	0	0	0	175.040665219305	175.240680628223
47668.5	100	305	8	1	40	17	0	8	0	0	0	stim001_stimuli_original_animals_birds_1.png	K	0	0	0	175.440685065463	175.640675118193
47768.5	100	306	8	1	40	18	8	0	0	0	0	stim009_stimuli_original_vehicles_boats_1.png	A	0	0	0	175.840687601129	176.04068740597
47868.5	100	307	8	1	40	19	6	1	0	0	0	stim007_stimuli_original_animals_fish_3.png	B	0	0	0	176.240700864466	176.440697012236
47968.5	100	308	8	1	40	20	13	7	0	0	0	stim014_stimuli_original_vehicles_planes_2.png	J	0	0	0	176.640703643672	176.840708081145
48068.5	100	309	8	1	40	21	12	14	0	0	0	stim013_stimuli_original_vehicles_planes_1.png	V	0	0	0	177.040715444135	177.240719637601
48168.5	100	310	8	1	40	22	1	5	0	0	0	stim002_stimuli_original_animals_birds_2.png	F	0	0	0	177.440724806394	177.640726805665
48268.5	100	311	8	1	40	23	15	13	0	1	0	stim016_stimuli_original_vehicles_planes_4.png	U	0	0	0	177.84073685063	178.040738849901
48368.5	100	312	8	1	40	24	11	3	0	0	0	stim012_stimuli_original_vehicles_boats_4.png	D	0	0	0	178.240745969117	178.440748212161
48468.5	100	313	8	1	40	25	5	13	0	1	1	stim006_stimuli_original_animals_fish_2.png	U	0	0	0	178.640763133299	178.840767082991
48568.5	100	314	8	1	40	26	4	10	0	0	0	stim005_stimuli_original_animals_fish_1.png	Q	0	0	0	179.04077078891	179.240769618656
48668.5	100	315	8	1	40	27	0	4	0	0	0	stim001_stimuli_original_animals_birds_1.png	E	0	0	0	179.440778200747	179.640792390332
48768.5	100	316	8	1	40	28	12	8	1	0	0	stim013_stimuli_original_vehicles_planes_1.png	K	0	0	0	179.84078951343	180.040792731801
48868.5	100	317	8	1	40	29	3	11	0	0	0	stim004_stimuli_original_animals_birds_4.png	R	0	0	0	180.240801313892	180.440809164429
48968.5	100	318	8	1	40	30	12	15	1	0	0	stim013_stimuli_original_vehicles_planes_1.png	Y	0	0	0	180.640814576996	180.840818526689
49068.75	100	319	8	1	40	31	9	9	0	0	0	stim010_stimuli_original_vehicles_boats_2.png	L	0	0	0	181.041232320247	181.24082910805
49168.5	100	320	8	1	40	32	10	2	0	0	0	stim011_stimuli_original_vehicles_boats_3.png	C	0	0	0	181.440833301749	181.640833594138
49268.5	100	321	8	1	40	33	14	13	0	0	0	stim015_stimuli_original_vehicles_planes_3.png	U	0	0	0	181.840840713354	182.040843931725
49368.5	100	322	8	1	40	34	2	12	0	0	0	stim003_stimuli_original_animals_birds_3.png	T	0	0	0	182.24085275759	182.440858170157
49468.5	100	323	8	1	40	35	7	6	0	0	0	stim008_stimuli_original_animals_fish_4.png	G	0	0	0	182.64086260763	182.840865581995
51189.5	100	324	9	0	21	0	9	0	0	0	0	stim010_stimuli_original_vehicles_boats_2.png	A	0	0	0	189.524386063451	189.72438976937
51289.5	100	325	9	0	21	1	14	8	0	0	0	stim015_stimuli_original_vehicles_planes_3.png	K	0	0	0	189.924421513453	190.124405958224
51389.5	100	326	9	0	21	2	15	11	0	0	0	stim016_stimuli_original_vehicles_planes_4.png	R	0	0	0	190.324431607034	190.524415320484
51489.5	100	327	9	0	21	3	12	5	0	0	0	stim013_stimuli_original_vehicles_planes_1.png	F	0	0	0	190.72442000173	190.924426145619
51589.5	100	328	9	0	21	4	2	4	0	0	0	stim003_stimuli_original_animals_birds_3.png	E	0	0	0	191.124426194467	191.324431119487
51689.5	100	329	9	0	21	5	14	9	1	0	0	stim015_stimuli_original_vehicles_planes_3.png	L	0	0	0	191.524437751155	191.724435118027
51789.5	100	330	9	0	21	6	6	6	0	0	0	stim007_stimuli_original_animals_fish_3.png	G	d	191.916982399998	0	191.92445101426	192.124452038202
51889.5	100	331	9	0	21	7	14	7	1	0	1	stim015_stimuli_original_vehicles_planes_3.png	J	0	0	0	192.324870464159	192.524465545313
51989.5	100	332	9	0	21	8	13	3	0	0	0	stim014_stimuli_original_vehicles_planes_2.png	D	0	0	0	192.724477053154	192.924472713377
52089.5	100	333	9	0	21	9	3	2	0	0	0	stim004_stimuli_original_animals_birds_4.png	C	0	0	0	193.124486659188	193.324485001387
52189.5	100	334	9	0	21	10	1	11	0	1	0	stim002_stimuli_original_animals_birds_2.png	R	0	0	0	193.524484318681	193.724493632093
52289.5	100	335	9	0	21	11	0	12	0	0	0	stim001_stimuli_original_animals_birds_1.png	T	0	0	0	193.924500995316	194.124505188782
52389.5	100	336	9	0	21	12	5	11	0	1	0	stim006_stimuli_original_animals_fish_2.png	R	0	0	0	194.324515965069	194.524516501464
52489.5	100	337	9	0	21	13	10	14	0	0	0	stim011_stimuli_original_vehicles_boats_3.png	V	0	0	0	194.724527033977	194.924549757037
52589.5	100	338	9	0	21	14	8	10	0	0	0	stim009_stimuli_original_vehicles_boats_1.png	Q	0	0	0	195.12453298294	195.32453790796
52689.5	100	339	9	0	21	15	7	13	0	0	0	stim008_stimuli_original_animals_fish_4.png	U	0	0	0	195.524546733825	195.724546538899
52789.5	100	340	9	0	21	16	11	1	0	0	0	stim012_stimuli_original_vehicles_boats_4.png	B	d	196.116322944174	0	195.924557071412	196.12455955823
52889.5	100	341	9	0	21	17	4	15	0	0	0	stim005_stimuli_original_animals_fish_1.png	Y	0	0	0	196.324587889016	196.524569164263
52989.5	100	342	9	0	21	18	15	4	0	0	0	stim016_stimuli_original_vehicles_planes_4.png	E	0	0	0	196.724580184557	196.92458486557
53089.5	100	343	9	0	21	19	1	11	0	0	0	stim002_stimuli_original_animals_birds_2.png	R	0	0	0	197.124591253465	197.324587645009
53189.5	100	344	9	0	21	20	13	7	0	0	0	stim014_stimuli_original_vehicles_planes_2.png	J	0	0	0	197.524624265265	197.725024649175
53289.5	100	345	9	0	21	21	10	8	0	0	0	stim011_stimuli_original_vehicles_boats_3.png	K	0	0	0	197.924611197086	198.124606613535
53389.5	100	346	9	0	21	22	14	10	0	0	0	stim015_stimuli_original_vehicles_planes_3.png	Q	0	0	0	198.324621046893	198.524622558616
53489.5	100	347	9	0	21	23	11	5	1	0	0	stim012_stimuli_original_vehicles_boats_4.png	F	0	0	0	198.724630409386	198.924632408423
53589.5	100	348	9	0	21	24	12	0	0	0	0	stim013_stimuli_original_vehicles_planes_1.png	A	0	0	0	199.124640502967	199.324635431869
53689.5	100	349	9	0	21	25	11	1	1	0	1	stim012_stimuli_original_vehicles_boats_4.png	B	d	199.731432204833	1	199.524654985173	199.724655521568
53789.5	100	350	9	0	21	26	2	3	0	0	0	stim003_stimuli_original_animals_birds_3.png	D	0	0	0	199.924661421916	200.124671466881
53889.5	100	351	9	0	21	27	3	13	0	0	0	stim004_stimuli_original_animals_birds_4.png	U	0	0	0	200.324671515496	200.524674490094
53989.5	100	352	9	0	21	28	7	14	0	1	0	stim008_stimuli_original_animals_fish_4.png	V	0	0	0	200.724680633983	200.924685559003
54089.5	100	353	9	0	21	29	6	6	0	0	0	stim007_stimuli_original_animals_fish_3.png	G	0	0	0	201.124701211462	201.324723690748
54189.5	100	354	9	0	21	30	9	14	0	1	0	stim010_stimuli_original_vehicles_boats_2.png	V	0	0	0	201.52472983487	201.724715498742
54289.5	100	355	9	0	21	31	4	2	0	0	0	stim005_stimuli_original_animals_fish_1.png	C	0	0	0	201.924716035137	202.124718278181
54389.5	100	356	9	0	21	32	5	12	0	0	0	stim006_stimuli_original_animals_fish_2.png	T	0	0	0	202.324726860272	202.524732029065
54489.5	100	357	9	0	21	33	11	15	0	0	0	stim012_stimuli_original_vehicles_boats_4.png	Y	0	0	0	202.724739635829	202.924733101856
54589.5	100	358	9	0	21	34	8	14	0	0	0	stim009_stimuli_original_vehicles_boats_1.png	V	0	0	0	203.124755093362	203.324747096514
54689.5	100	359	9	0	21	35	0	9	0	0	0	stim001_stimuli_original_animals_birds_1.png	L	0	0	0	203.5247625052	203.724768161541
55527	100	360	10	1	5	0	11	6	0	0	0	stim012_stimuli_original_vehicles_boats_4.png	G	0	0	0	206.87485383614	207.074858029839
55627	100	361	10	1	5	1	5	0	0	0	0	stim006_stimuli_original_animals_fish_2.png	A	0	0	0	207.274883190868	207.474859590176
55727	100	362	10	1	5	2	0	3	0	0	0	stim001_stimuli_original_animals_birds_1.png	D	0	0	0	207.674872316886	207.874873341061
55827	100	363	10	1	5	3	9	8	0	0	0	stim010_stimuli_original_vehicles_boats_2.png	K	0	0	0	208.07487704698	208.274870756548
55927	100	364	10	1	5	4	4	7	0	0	0	stim005_stimuli_original_animals_fish_1.png	J	0	0	0	208.474912009202	208.67488792073
56027	100	365	10	1	5	5	1	11	1	1	0	stim002_stimuli_original_animals_birds_2.png	R	0	0	0	208.874917714391	209.074896307895
56127	100	366	10	1	5	6	8	15	0	0	0	stim009_stimuli_original_vehicles_boats_1.png	Y	0	0	0	209.274905621307	209.474915910047
56227	100	367	10	1	5	7	1	11	1	1	1	stim002_stimuli_original_animals_birds_2.png	R	0	0	0	209.674918640871	209.87492307811
56327	100	368	10	1	5	8	10	4	0	0	0	stim011_stimuli_original_vehicles_boats_3.png	E	d	210.26668899972	1	210.074922639178	210.274925126228
56427	100	369	10	1	5	9	12	1	0	0	0	stim013_stimuli_original_vehicles_planes_1.png	B	0	0	0	210.474940047367	210.674941315083
56527	100	370	10	1	5	10	13	11	0	0	0	stim014_stimuli_original_vehicles_planes_2.png	R	0	0	0	210.874953554245	211.074948970694
56627	100	371	10	1	5	11	2	14	0	0	0	stim003_stimuli_original_animals_birds_3.png	V	0	0	0	211.274958528113	211.474963696674
56727	100	372	10	1	5	12	15	12	0	0	0	stim016_stimuli_original_vehicles_planes_4.png	T	0	0	0	211.674966915045	211.87497622869
56827	100	373	10	1	5	13	14	2	0	0	0	stim015_stimuli_original_vehicles_planes_3.png	C	0	0	0	212.074991149828	212.274978276575
56927	100	374	10	1	5	14	6	10	0	0	0	stim007_stimuli_original_animals_fish_3.png	Q	0	0	0	212.474989296868	212.67499495321
57027	100	375	10	1	5	15	7	9	0	0	0	stim008_stimuli_original_animals_fish_4.png	L	0	0	0	212.875002316199	213.075037961127
57127	100	376	10	1	5	16	3	13	0	0	0	stim004_stimuli_original_animals_birds_4.png	U	0	0	0	213.275005583186	213.475010751979
57227	100	377	10	1	5	17	1	5	0	0	0	stim002_stimuli_original_animals_birds_2.png	F	0	0	0	213.675022991141	213.875027672388
57327	100	378	10	1	5	18	5	1	0	0	0	stim006_stimuli_original_animals_fish_2.png	B	d	214.067601773422	0	214.075044056401	214.275035571773
57427	100	379	10	1	5	19	13	3	0	0	0	stim014_stimuli_original_vehicles_planes_2.png	D	0	0	0	214.475047810934	214.675066389376
57527	100	380	10	1	5	20	9	7	0	0	0	stim010_stimuli_original_vehicles_boats_2.png	J	0	0	0	214.875056685647	215.075058441143
57627	100	381	10	1	5	21	10	6	0	0	0	stim011_stimuli_original_vehicles_boats_3.png	G	0	0	0	215.275064829038	215.475073411129
57727	100	382	10	1	5	22	2	14	0	0	0	stim003_stimuli_original_animals_birds_3.png	V	0	0	0	215.675075654173	215.875079359859
57827.25	100	383	10	1	5	23	12	15	0	0	0	stim013_stimuli_original_vehicles_planes_1.png	Y	0	0	0	216.07551582763	216.275095548946
57927	100	384	10	1	5	24	14	2	0	0	0	stim015_stimuli_original_vehicles_planes_3.png	C	0	0	0	216.475094622467	216.675099059707
58027	100	385	10	1	5	25	11	13	0	0	0	stim012_stimuli_original_vehicles_boats_4.png	U	d	217.066877415637	0	216.875110323774	217.075115248794
58127	100	386	10	1	5	26	1	12	0	0	0	stim002_stimuli_original_animals_birds_2.png	T	0	0	0	217.275120417587	217.47511851578
58227	100	387	10	1	5	27	4	10	0	0	0	stim005_stimuli_original_animals_fish_1.png	Q	0	0	0	217.675124415895	217.87513372954
58327	100	388	10	1	5	28	11	1	1	1	0	stim012_stimuli_original_vehicles_boats_4.png	B	0	0	0	218.075139385881	218.275170885958
58427	100	389	10	1	5	29	15	8	0	0	0	stim016_stimuli_original_vehicles_planes_4.png	K	0	0	0	218.475159719586	218.675159280654
58527	100	390	10	1	5	30	11	1	1	1	1	stim012_stimuli_original_vehicles_boats_4.png	B	0	0	0	218.875167131424	219.075198143953
58627	100	391	10	1	5	31	7	4	0	0	0	stim008_stimuli_original_animals_fish_4.png	E	0	0	0	219.275172105059	219.475174591877
58727	100	392	10	1	5	32	8	9	0	0	0	stim009_stimuli_original_vehicles_boats_1.png	L	0	0	0	219.675183173968	219.875196876004
58827.25	100	393	10	1	5	33	3	0	0	0	0	stim004_stimuli_original_animals_birds_4.png	A	0	0	0	220.075199363055	220.27520892024
58927	100	394	10	1	5	34	0	5	0	0	0	stim001_stimuli_original_animals_birds_1.png	F	0	0	0	220.475204580463	220.675213650102
59027	100	395	10	1	5	35	6	11	0	0	0	stim007_stimuli_original_animals_fish_3.png	R	0	0	0	220.875206872355	221.07521277247
61889.75	100	396	11	0	7	0	2	6	0	0	0	stim003_stimuli_original_animals_birds_3.png	G	0	0	0	232.325518265832	232.525519046001
61989.75	100	397	11	0	7	1	6	9	0	0	0	stim007_stimuli_original_animals_fish_3.png	L	0	0	0	232.725527384086	232.925530602457
62089.75	100	398	11	0	7	2	0	15	0	0	0	stim001_stimuli_original_animals_birds_1.png	Y	0	0	0	233.125538940774	233.325546547538
62189.75	100	399	11	0	7	3	15	10	0	0	0	stim016_stimuli_original_vehicles_planes_4.png	Q	0	0	0	233.525555617409	233.725549326977
62289.75	100	400	11	0	7	4	14	2	1	0	0	stim015_stimuli_original_vehicles_planes_3.png	C	0	0	0	233.925558640622	234.125564053189
62389.75	100	401	11	0	7	5	3	1	0	0	0	stim004_stimuli_original_animals_birds_4.png	B	0	0	0	234.325571416179	234.525598283857
62489.75	100	402	11	0	7	6	14	9	1	1	1	stim015_stimuli_original_vehicles_planes_3.png	L	0	0	0	234.725579559337	234.92558350903
62589.75	100	403	11	0	7	7	7	12	0	0	0	stim008_stimuli_original_animals_fish_4.png	T	0	0	0	235.12559428555	235.32560579339
62689.75	100	404	11	0	7	8	10	9	0	1	0	stim011_stimuli_original_vehicles_boats_3.png	L	0	0	0	235.525605110684	235.725615399424
62789.75	100	405	11	0	7	9	8	0	0	0	0	stim009_stimuli_original_vehicles_boats_1.png	A	0	0	0	235.925616423367	236.125619153958
62889.75	100	406	11	0	7	10	14	3	0	0	0	stim015_stimuli_original_vehicles_planes_3.png	D	0	0	0	236.325621884782	236.525662162108
62989.75	100	407	11	0	7	11	5	13	0	0	0	stim006_stimuli_original_animals_fish_2.png	U	0	0	0	236.725647338433	236.925665672868
63089.75	100	408	11	0	7	12	9	8	0	0	0	stim010_stimuli_original_vehicles_boats_2.png	K	d	237.326528855832	0	237.125676936936	237.325892269379
63189.75	100	409	11	0	7	13	11	4	0	0	0	stim012_stimuli_original_vehicles_boats_4.png	E	0	0	0	237.52568776207	237.725669281324
63289.75	100	410	11	0	7	14	13	7	0	0	0	stim014_stimuli_original_vehicles_planes_2.png	J	0	0	0	237.925668598618	238.125699854922
63389.75	100	411	11	0	7	15	4	14	0	0	0	stim005_stimuli_original_animals_fish_1.png	V	0	0	0	238.325699172216	238.525684105
63489.75	100	412	11	0	7	16	12	11	0	0	0	stim013_stimuli_original_vehicles_planes_1.png	R	0	0	0	238.725685860263	238.925686884206
63589.75	100	413	11	0	7	17	1	5	0	0	0	stim002_stimuli_original_animals_birds_2.png	F	d	239.118221488083	0	239.125695222523	239.325701366644
63689.75	100	414	11	0	7	18	5	1	0	0	0	stim006_stimuli_original_animals_fish_2.png	B	0	0	0	239.525715068681	239.725714142201
63789.75	100	415	11	0	7	19	11	12	0	0	0	stim012_stimuli_original_vehicles_boats_4.png	T	0	0	0	239.925716141472	240.125722529367
63889.75	100	416	11	0	7	20	14	4	0	0	0	stim015_stimuli_original_vehicles_planes_3.png	E	0	0	0	240.3257325741	240.5257321354
63989.75	100	417	11	0	7	21	7	13	0	0	0	stim008_stimuli_original_animals_fish_4.png	U	0	0	0	240.725741692586	240.925749055808
64089.75	100	418	11	0	7	22	4	11	0	0	0	stim005_stimuli_original_animals_fish_1.png	R	0	0	0	241.125786163611	241.325778410304
64189.75	100	419	11	0	7	23	8	9	0	0	0	stim009_stimuli_original_vehicles_boats_1.png	L	0	0	0	241.525787967723	241.725794843165
64289.75	100	420	11	0	7	24	13	5	0	0	0	stim014_stimuli_original_vehicles_planes_2.png	F	0	0	0	241.925797086209	242.125804692972
64389.75	100	421	11	0	7	25	3	14	0	0	0	stim004_stimuli_original_animals_birds_4.png	V	0	0	0	242.325809374219	242.525808203965
64489.75	100	422	11	0	7	26	0	8	0	0	0	stim001_stimuli_original_animals_birds_1.png	K	0	0	0	242.725805083057	242.925798549084
64589.75	100	423	11	0	7	27	9	10	1	0	0	stim010_stimuli_original_vehicles_boats_2.png	Q	0	0	0	243.125815664418	243.32581059332
64689.75	100	424	11	0	7	28	12	7	0	0	0	stim013_stimuli_original_vehicles_planes_1.png	J	0	0	0	243.525825758232	243.725851650815
64789.75	100	425	11	0	7	29	9	14	1	1	1	stim010_stimuli_original_vehicles_boats_2.png	V	d	243.918428677367	1	243.925851211883	244.125858087325
64889.75	100	426	11	0	7	30	1	3	0	0	0	stim002_stimuli_original_animals_birds_2.png	D	0	0	0	244.325860086596	244.525873301085
64989.75	100	427	11	0	7	31	2	14	0	1	0	stim003_stimuli_original_animals_birds_3.png	V	0	0	0	244.725870667957	244.925883394666
65089.75	100	428	11	0	7	32	10	15	0	0	0	stim011_stimuli_original_vehicles_boats_3.png	Y	0	0	0	245.125908555929	245.325895438902
65189.75	100	429	11	0	7	33	15	0	0	0	0	stim016_stimuli_original_vehicles_planes_4.png	A	0	0	0	245.525902558118	245.725908214459
65289.75	100	430	11	0	7	34	9	6	0	0	0	stim010_stimuli_original_vehicles_boats_2.png	G	0	0	0	245.925899242284	246.125897584483
65389.75	100	431	11	0	7	35	6	2	0	0	0	stim007_stimuli_original_animals_fish_3.png	C	0	0	0	246.325926402817	246.525946687674
66073.25	100	432	12	1	43	0	13	4	0	0	0	stim014_stimuli_original_vehicles_planes_2.png	E	0	0	0	249.059313471662	249.259326442378
66173.25	100	433	12	1	43	1	8	13	0	0	0	stim009_stimuli_original_vehicles_boats_1.png	U	0	0	0	249.459333073813	249.659312642645
66273.25	100	434	12	1	43	2	6	1	0	0	0	stim007_stimuli_original_animals_fish_3.png	B	0	0	0	249.859352676198	250.059332976351
66373.25	100	435	12	1	43	3	12	10	0	0	0	stim013_stimuli_original_vehicles_planes_1.png	Q	0	0	0	250.259350823238	250.459359161556
66473.25	100	436	12	1	43	4	15	9	1	0	0	stim016_stimuli_original_vehicles_planes_4.png	L	0	0	0	250.659372619819	250.859339510556
66573.25	100	437	12	1	43	5	9	2	0	0	0	stim010_stimuli_original_vehicles_boats_2.png	C	0	0	0	251.059349799296	251.259354724083
66673.25	100	438	12	1	43	6	15	12	1	0	0	stim016_stimuli_original_vehicles_planes_4.png	T	0	0	0	251.459365500603	251.659373595146
66773.25	100	439	12	1	43	7	3	0	0	0	0	stim004_stimuli_original_animals_birds_4.png	A	0	0	0	251.859370474238	252.059374667704
66873.25	100	440	12	1	43	8	7	7	0	0	0	stim008_stimuli_original_animals_fish_4.png	J	0	0	0	252.259387150872	252.45938427397
66973.25	100	441	12	1	43	9	11	1	0	1	0	stim012_stimuli_original_vehicles_boats_4.png	B	0	0	0	252.659392856061	252.859389735153
67073.25	100	442	12	1	43	10	0	3	0	0	0	stim001_stimuli_original_animals_birds_1.png	D	0	0	0	253.05943050026	253.259432499297
67173.25	100	443	12	1	43	11	1	1	0	1	1	stim002_stimuli_original_animals_birds_2.png	B	0	0	0	253.459442300489	253.659456490306
67273.25	100	444	12	1	43	12	15	11	0	0	0	stim016_stimuli_original_vehicles_planes_4.png	R	0	0	0	253.859439228661	254.059448785847
67373.25	100	445	12	1	43	13	14	5	0	0	0	stim015_stimuli_original_vehicles_planes_3.png	F	0	0	0	254.259455173742	254.459466925357
67473.25	100	446	12	1	43	14	5	15	0	0	0	stim006_stimuli_original_animals_fish_2.png	Y	0	0	0	254.659473313019	254.859475312289
67573.25	100	447	12	1	43	15	2	6	0	0	0	stim003_stimuli_original_animals_birds_3.png	G	0	0	0	255.059918119106	255.259463706985
67673.25	100	448	12	1	43	16	10	8	0	0	0	stim011_stimuli_original_vehicles_boats_3.png	K	0	0	0	255.459472289076	255.659470143495
67773.25	100	449	12	1	43	17	4	14	0	0	0	stim005_stimuli_original_animals_fish_1.png	V	0	0	0	255.859479213366	256.059494134504
67873.25	100	450	12	1	43	18	14	4	0	0	0	stim015_stimuli_original_vehicles_planes_3.png	E	d	256.451283705421	0	256.259516126011	256.459503496764
67973.25	100	451	12	1	43	19	8	10	0	0	0	stim009_stimuli_original_vehicles_boats_1.png	Q	0	0	0	256.659525244497	256.859528462868
68073.25	100	452	12	1	43	20	6	2	0	0	0	stim007_stimuli_original_animals_fish_3.png	C	0	0	0	257.059536557179	257.259519295534
68173.25	100	453	12	1	43	21	15	5	0	0	0	stim016_stimuli_original_vehicles_planes_4.png	F	0	0	0	257.459522026125	257.659521343652
68273.25	100	454	12	1	43	22	5	14	0	0	0	stim006_stimuli_original_animals_fish_2.png	V	0	0	0	257.859527487541	258.059536069632
68373.25	100	455	12	1	43	23	11	15	0	0	0	stim012_stimuli_original_vehicles_boats_4.png	Y	0	0	0	258.259540994652	258.459542993922
68473.25	100	456	12	1	43	24	1	1	1	0	0	stim002_stimuli_original_animals_birds_2.png	B	0	0	0	258.659548650263	258.859551380854
68573.25	100	457	12	1	43	25	3	0	0	0	0	stim004_stimuli_original_animals_birds_4.png	A	0	0	0	259.059567033546	259.259565619286
68673.25	100	458	12	1	43	26	1	11	1	0	0	stim002_stimuli_original_animals_birds_2.png	R	0	0	0	259.459571519634	259.659573762678
68773.25	100	459	12	1	43	27	7	7	0	0	0	stim008_stimuli_original_animals_fish_4.png	J	0	0	0	259.85958063812	260.059583612485
68873.25	100	460	12	1	43	28	0	3	0	0	0	stim001_stimuli_original_animals_birds_1.png	D	0	0	0	260.259591219248	260.459933820413
68973.25	100	461	12	1	43	29	12	15	0	1	0	stim013_stimuli_original_vehicles_planes_1.png	Y	0	0	0	260.659604970133	260.859605506528
69073.25	100	462	12	1	43	30	2	9	0	0	0	stim003_stimuli_original_animals_birds_3.png	L	0	0	0	261.059612381971	261.259614137467
69173.25	100	463	12	1	43	31	9	15	0	1	1	stim010_stimuli_original_vehicles_boats_2.png	Y	0	0	0	261.45963052148	261.659661777783
69273.25	100	464	12	1	43	32	10	12	0	0	0	stim011_stimuli_original_vehicles_boats_3.png	T	0	0	0	261.859652074287	262.05963895726
69373.25	100	465	12	1	43	33	1	6	0	0	0	stim002_stimuli_original_animals_birds_2.png	G	0	0	0	262.259643638274	262.459648807067
69473.25	100	466	12	1	43	34	13	8	0	0	0	stim014_stimuli_original_vehicles_planes_2.png	K	0	0	0	262.65965568251	262.85965768178
69573.25	100	467	12	1	43	35	4	13	0	0	0	stim005_stimuli_original_animals_fish_1.png	U	0	0	0	263.059665776324	263.259668263141
70427.5	100	468	13	0	41	0	6	9	0	0	0	stim007_stimuli_original_animals_fish_3.png	L	0	0	0	266.476422408596	266.676430746913
70527.5	100	469	13	0	41	1	8	12	0	0	0	stim009_stimuli_original_vehicles_boats_1.png	T	0	0	0	266.876437378582	267.076444741571
70627.5	100	470	13	0	41	2	10	2	0	0	0	stim011_stimuli_original_vehicles_boats_3.png	C	0	0	0	267.276440158021	267.476442644838
70727.5	100	471	13	0	41	3	4	14	0	0	0	stim005_stimuli_original_animals_fish_1.png	V	0	0	0	267.676462442148	267.876461028121
70827.5	100	472	13	0	41	4	14	3	0	0	0	stim015_stimuli_original_vehicles_planes_3.png	D	0	0	0	268.076467659557	268.276903883554
70927.5	100	473	13	0	41	5	10	4	1	0	0	stim011_stimuli_original_vehicles_boats_3.png	E	0	0	0	268.47647653427	268.676489748759
71027.5	100	474	13	0	41	6	7	2	0	1	0	stim008_stimuli_original_animals_fish_4.png	C	0	0	0	268.876489797607	269.076495453948
71127.5	100	475	13	0	41	7	10	11	1	0	1	stim011_stimuli_original_vehicles_boats_3.png	R	0	0	0	269.276503792265	269.476499208482
71227.5	100	476	13	0	41	8	2	2	0	1	0	stim003_stimuli_original_animals_birds_3.png	C	0	0	0	269.676502914401	269.876514178468
71327.5	100	477	13	0	41	9	0	7	0	0	0	stim001_stimuli_original_animals_birds_1.png	J	0	0	0	270.076519834809	270.276557917939
71427.5	100	478	13	0	41	10	1	5	0	0	0	stim002_stimuli_original_animals_birds_2.png	F	0	0	0	270.476543094264	270.676562891575
71527.5	100	479	13	0	41	11	5	10	0	0	0	stim006_stimuli_original_animals_fish_2.png	Q	0	0	0	270.876552700298	271.076552992919
71627.5	100	480	13	0	41	12	3	15	0	0	0	stim004_stimuli_original_animals_birds_4.png	Y	0	0	0	271.276558649261	271.476562598953
71727.5	100	481	13	0	41	13	13	13	0	0	0	stim014_stimuli_original_vehicles_planes_2.png	U	0	0	0	271.676573131699	271.876579031814
71827.5	100	482	13	0	41	14	11	1	0	0	0	stim012_stimuli_original_vehicles_boats_4.png	B	0	0	0	272.076598341577	272.276571571128
71927.5	100	483	13	0	41	15	9	0	0	0	0	stim010_stimuli_original_vehicles_boats_2.png	A	0	0	0	272.476580884773	272.676600682084
72027.5	100	484	13	0	41	16	12	6	0	0	0	stim013_stimuli_original_vehicles_planes_1.png	G	0	0	0	272.87660243758	273.076617114944
72127.5	100	485	13	0	41	17	15	8	0	0	0	stim016_stimuli_original_vehicles_planes_4.png	K	0	0	0	273.276599609293	273.476802263642
72227.5	100	486	13	0	41	18	8	15	0	0	0	stim009_stimuli_original_vehicles_boats_1.png	Y	0	0	0	273.676629695343	273.876616090769
72327.5	100	487	13	0	41	19	6	12	0	0	0	stim007_stimuli_original_animals_fish_3.png	T	0	0	0	274.076629305258	274.276638862677
72427.5	100	488	13	0	41	20	0	9	0	0	0	stim001_stimuli_original_animals_birds_1.png	L	0	0	0	274.476646713214	274.676651150687
72527.5	100	489	13	0	41	21	1	11	0	0	0	stim002_stimuli_original_animals_birds_2.png	R	0	0	0	274.876650467981	275.076654417673
72627.5	100	490	13	0	41	22	13	13	0	0	0	stim014_stimuli_original_vehicles_planes_2.png	U	0	0	0	275.276663487311	275.476668899879
72727.5	100	491	13	0	41	23	15	3	0	0	0	stim016_stimuli_original_vehicles_planes_4.png	D	0	0	0	275.67667748197	275.876673385967
72827.5	100	492	13	0	41	24	10	5	0	0	0	stim011_stimuli_original_vehicles_boats_3.png	F	0	0	0	276.076692695729	276.276690062601
72927.5	100	493	13	0	41	25	5	1	0	0	0	stim006_stimuli_original_animals_fish_2.png	B	0	0	0	276.476700107567	276.676708202111
73027.5	100	494	13	0	41	26	7	0	0	0	0	stim008_stimuli_original_animals_fish_4.png	A	0	0	0	276.876716784202	277.07672049012
73127.5	100	495	13	0	41	27	2	2	1	0	0	stim003_stimuli_original_animals_birds_3.png	C	d	277.269320922438	0	277.276718588313	277.476718637161
73227.5	100	496	13	0	41	28	11	10	0	1	0	stim012_stimuli_original_vehicles_boats_4.png	Q	0	0	0	277.676735996269	277.876734338468
73327.5	100	497	13	0	41	29	2	7	1	0	1	stim003_stimuli_original_animals_birds_3.png	J	0	0	0	278.076767057646	278.276738580782
73427.5	100	498	13	0	41	30	4	10	0	1	0	stim005_stimuli_original_animals_fish_1.png	Q	0	0	0	278.476739117177	278.676756232511
73527.5	100	499	13	0	41	31	3	14	0	0	0	stim004_stimuli_original_animals_birds_4.png	V	0	0	0	278.876773591619	279.07677022717
73627.5	100	500	13	0	41	32	14	4	0	0	0	stim015_stimuli_original_vehicles_planes_3.png	E	0	0	0	279.276774908416	279.476780076977
73727.5	100	501	13	0	41	33	2	10	0	0	0	stim003_stimuli_original_animals_birds_3.png	Q	0	0	0	279.676804019138	279.87680723751
73827.5	100	502	13	0	41	34	12	8	0	0	0	stim013_stimuli_original_vehicles_planes_1.png	K	0	0	0	280.076803141506	280.276783685433
73927.5	100	503	13	0	41	35	9	6	0	0	0	stim010_stimuli_original_vehicles_boats_2.png	G	0	0	0	280.476804945618	280.676805482013
79586	100	504	14	1	27	0	11	3	0	0	0	stim012_stimuli_original_vehicles_boats_4.png	D	0	0	0	303.110738001298	303.310742682545
79686	100	505	14	1	27	1	12	14	0	0	0	stim013_stimuli_original_vehicles_planes_1.png	V	0	0	0	303.510745900916	303.710745705757
79786	100	506	14	1	27	2	10	8	0	0	0	stim011_stimuli_original_vehicles_boats_3.png	K	0	0	0	303.910754287848	304.110754824243
79886	100	507	14	1	27	3	7	6	0	0	0	stim008_stimuli_original_animals_fish_4.png	G	0	0	0	304.310765844537	304.51077637705
79986	100	508	14	1	27	4	15	2	0	0	0	stim016_stimuli_original_vehicles_planes_4.png	C	0	0	0	304.710771549493	304.910794516327
80086	100	509	14	1	27	5	8	11	0	0	0	stim009_stimuli_original_vehicles_boats_1.png	R	0	0	0	305.110783106182	305.310785836773
80186	100	510	14	1	27	6	3	13	0	0	0	stim004_stimuli_original_animals_birds_4.png	U	0	0	0	305.510792955989	305.710968059953
80286	100	511	14	1	27	7	9	12	0	0	0	stim010_stimuli_original_vehicles_boats_2.png	T	0	0	0	305.910807925975	306.110808218597
80386	100	512	14	1	27	8	5	15	0	0	0	stim006_stimuli_original_animals_fish_2.png	Y	0	0	0	306.310818019556	306.510820994154
80486	100	513	14	1	27	9	15	1	1	0	0	stim016_stimuli_original_vehicles_planes_4.png	B	0	0	0	306.710827382049	306.91083303839
80586	100	514	14	1	27	10	2	0	0	0	0	stim003_stimuli_original_animals_birds_3.png	A	0	0	0	307.110836256528	307.310839962447
80686	100	515	14	1	27	11	15	4	1	0	0	stim016_stimuli_original_vehicles_planes_4.png	E	0	0	0	307.510852201842	307.710857126629
80786	100	516	14	1	27	12	14	12	0	1	0	stim015_stimuli_original_vehicles_planes_3.png	T	0	0	0	307.910861807875	308.110863807146
80886	100	517	14	1	27	13	13	9	0	0	0	stim014_stimuli_original_vehicles_planes_2.png	L	0	0	0	308.310867269058	308.510871950304
80986	100	518	14	1	27	14	4	12	0	1	1	stim005_stimuli_original_animals_fish_1.png	T	0	0	0	308.710880532395	308.910896672634
81086	100	519	14	1	27	15	1	10	0	0	0	stim002_stimuli_original_animals_birds_2.png	Q	d	309.311087672831	1	309.110890382202	309.310903352918
81186	100	520	14	1	27	16	6	5	0	0	0	stim007_stimuli_original_animals_fish_3.png	F	0	0	0	309.510916323634	309.710931000998
81286	100	521	14	1	27	17	0	7	0	0	0	stim001_stimuli_original_animals_birds_1.png	J	0	0	0	309.910924223019	310.110923540313
81386	100	522	14	1	27	18	7	0	0	0	0	stim008_stimuli_original_animals_fish_4.png	A	0	0	0	310.310931634856	310.510934609221
81486	100	523	14	1	27	19	5	6	0	0	0	stim006_stimuli_original_animals_fish_2.png	G	0	0	0	310.71093831514	310.910945434589
81586	100	524	14	1	27	20	10	1	0	0	0	stim011_stimuli_original_vehicles_boats_3.png	B	0	0	0	311.110952553805	311.31095260242
81686	100	525	14	1	27	21	12	4	1	0	0	stim013_stimuli_original_vehicles_planes_1.png	E	0	0	0	311.510974594159	311.710958795156
81786	100	526	14	1	27	22	9	13	0	0	0	stim010_stimuli_original_vehicles_boats_2.png	U	0	0	0	311.910980543122	312.110976934666
81886	100	527	14	1	27	23	12	14	1	0	0	stim013_stimuli_original_vehicles_planes_1.png	V	0	0	0	312.310973569984	312.510978007456
81986	100	528	14	1	27	24	4	15	0	1	0	stim005_stimuli_original_animals_fish_1.png	Y	0	0	0	312.710987320868	312.910992002115
82086	100	529	14	1	27	25	0	2	0	0	0	stim001_stimuli_original_animals_birds_1.png	C	0	0	0	313.110993513605	313.310998194851
82186	100	530	14	1	27	26	1	15	0	1	1	stim002_stimuli_original_animals_birds_2.png	Y	0	0	0	313.511041641701	313.711025355151
82286	100	531	14	1	27	27	15	5	0	0	0	stim016_stimuli_original_vehicles_planes_4.png	F	0	0	0	313.911025160225	314.111024233745
82386	100	532	14	1	27	28	12	9	0	0	0	stim013_stimuli_original_vehicles_planes_1.png	L	d	314.303651241353	1	314.311038667103	314.511036765529
82486	100	533	14	1	27	29	13	3	0	0	0	stim014_stimuli_original_vehicles_planes_2.png	D	0	0	0	314.711052661762	314.911074165953
82586	100	534	14	1	27	30	11	8	0	0	0	stim012_stimuli_original_vehicles_boats_4.png	K	0	0	0	315.111058854731	315.311061829096
82686	100	535	14	1	27	31	2	15	0	0	0	stim003_stimuli_original_animals_birds_3.png	Y	0	0	0	315.511065291241	315.711074360879
82786	100	536	14	1	27	32	6	7	0	0	0	stim007_stimuli_original_animals_fish_3.png	J	0	0	0	315.91107709147	316.111079822294
82886	100	537	14	1	27	33	8	10	0	0	0	stim009_stimuli_original_vehicles_boats_1.png	Q	0	0	0	316.311311977683	316.511100643547
82986	100	538	14	1	27	34	14	12	0	0	0	stim015_stimuli_original_vehicles_planes_3.png	T	0	0	0	316.711098010419	316.911099522142
83086	100	539	14	1	27	35	3	11	0	0	0	stim004_stimuli_original_animals_birds_4.png	R	0	0	0	317.111108835554	317.311108396621
84023.5	100	540	15	0	32	0	1	5	0	0	0	stim002_stimuli_original_animals_birds_2.png	F	0	0	0	320.861214405159	321.061214453774
84123.5	100	541	15	0	32	1	9	0	0	0	0	stim010_stimuli_original_vehicles_boats_2.png	A	0	0	0	321.261213527294	321.461217476986
84223.5	100	542	15	0	32	2	7	6	0	0	0	stim008_stimuli_original_animals_fish_4.png	G	0	0	0	321.661225815304	321.861226351699
84323.5	100	543	15	0	32	3	0	15	0	0	0	stim001_stimuli_original_animals_birds_1.png	Y	0	0	0	322.061246636556	322.261250586249
84423.5	100	544	15	0	32	4	15	11	0	0	0	stim016_stimuli_original_vehicles_planes_4.png	R	0	0	0	322.461283549434	322.66126165539
84523.5	100	545	15	0	32	5	6	7	0	0	0	stim007_stimuli_original_animals_fish_3.png	J	0	0	0	322.86125414609	323.06125565758
84623.5	100	546	15	0	32	6	2	13	0	0	0	stim003_stimuli_original_animals_birds_3.png	U	0	0	0	323.261274479795	323.46128574363
84723.5	100	547	15	0	32	7	4	10	0	0	0	stim005_stimuli_original_animals_fish_1.png	Q	0	0	0	323.661278234329	323.861309978412
84823.5	100	548	15	0	32	8	3	12	0	0	0	stim004_stimuli_original_animals_birds_4.png	T	0	0	0	324.061291253893	324.261292034062
84923.75	100	549	15	0	32	9	2	2	1	0	0	stim003_stimuli_original_animals_birds_3.png	C	0	0	0	324.461758490186	324.661323582986
85023.5	100	550	15	0	32	10	10	9	0	0	0	stim011_stimuli_original_vehicles_boats_3.png	L	0	0	0	324.861321437405	325.061316609848
85123.5	100	551	15	0	32	11	2	14	1	0	1	stim003_stimuli_original_animals_birds_3.png	V	0	0	0	325.261322997743	325.461332555162
85223.5	100	552	15	0	32	12	8	11	0	1	0	stim009_stimuli_original_vehicles_boats_1.png	R	d	325.653935913229	1	325.661340893479	325.861345330719
85323.5	100	553	15	0	32	13	13	4	0	0	0	stim014_stimuli_original_vehicles_planes_2.png	E	0	0	0	326.061342210043	326.26134713483
85423.5	100	554	15	0	32	14	11	11	0	1	0	stim012_stimuli_original_vehicles_boats_4.png	R	0	0	0	326.461364737945	326.661363811465
85523.5	100	555	15	0	32	15	14	1	0	0	0	stim015_stimuli_original_vehicles_planes_3.png	B	0	0	0	326.861365079181	327.061380975647
85623.5	100	556	15	0	32	16	12	8	0	0	0	stim013_stimuli_original_vehicles_planes_1.png	K	0	0	0	327.26137663587	327.461384974187
85723.5	100	557	15	0	32	17	5	3	0	0	0	stim006_stimuli_original_animals_fish_2.png	D	0	0	0	327.661392337177	327.861399212619
85823.5	100	558	15	0	32	18	3	5	0	0	0	stim004_stimuli_original_animals_birds_4.png	F	0	0	0	328.061399261467	328.26140028541
85923.5	100	559	15	0	32	19	8	12	0	0	0	stim009_stimuli_original_vehicles_boats_1.png	T	0	0	0	328.461413499899	328.661405990599
86023.5	100	560	15	0	32	20	1	14	0	0	0	stim002_stimuli_original_animals_birds_2.png	V	0	0	0	328.861421886832	329.061428762274
86123.5	100	561	15	0	32	21	11	11	1	0	0	stim012_stimuli_original_vehicles_boats_4.png	R	0	0	0	329.261429542443	329.461433735909
86223.75	100	562	15	0	32	22	4	13	0	0	0	stim005_stimuli_original_animals_fish_1.png	U	0	0	0	329.661625906592	329.86145967734
86323.5	100	563	15	0	32	23	11	8	1	0	1	stim012_stimuli_original_vehicles_boats_4.png	K	0	0	0	330.06145216804	330.261461725226
86423.5	100	564	15	0	32	24	14	2	0	1	0	stim015_stimuli_original_vehicles_planes_3.png	C	0	0	0	330.461459823651	330.661471331492
86523.5	100	565	15	0	32	25	9	10	0	0	0	stim010_stimuli_original_vehicles_boats_2.png	Q	0	0	0	330.861478450708	331.061477768002
86623.5	100	566	15	0	32	26	2	2	0	1	0	stim003_stimuli_original_animals_birds_3.png	C	0	0	0	331.261483911891	331.461490543559
86723.5	100	567	15	0	32	27	12	3	0	0	0	stim013_stimuli_original_vehicles_planes_1.png	D	0	0	0	331.661495712353	331.861503075343
86823.5	100	568	15	0	32	28	10	4	0	0	0	stim011_stimuli_original_vehicles_boats_3.png	E	0	0	0	332.06150604994	332.261506342562
86923.5	100	569	15	0	32	29	13	2	0	0	0	stim014_stimuli_original_vehicles_planes_2.png	C	0	0	0	332.461520532146	332.661523994291
87023.5	100	570	15	0	32	30	7	6	0	0	0	stim008_stimuli_original_animals_fish_4.png	G	0	0	0	332.861527943984	333.061528724153
87123.5	100	571	15	0	32	31	11	15	0	0	0	stim012_stimuli_original_vehicles_boats_4.png	Y	0	0	0	333.261536330916	333.461545888335
87223.75	100	572	15	0	32	32	15	0	0	0	0	stim016_stimuli_original_vehicles_planes_4.png	A	0	0	0	333.661560321925	333.861554519273
87323.5	100	573	15	0	32	33	6	7	0	0	0	stim007_stimuli_original_animals_fish_3.png	J	0	0	0	334.061556518544	334.261558761587
87423.75	100	574	15	0	32	34	0	9	0	0	0	stim001_stimuli_original_animals_birds_1.png	L	0	0	0	334.461576608242	334.661605182802
87523.75	100	575	15	0	32	35	5	1	0	0	0	stim006_stimuli_original_animals_fish_2.png	B	0	0	0	334.861595966853	335.062065592501
89986.25	100	576	16	1	20	0	13	15	0	0	0	stim014_stimuli_original_vehicles_planes_2.png	Y	0	0	0	344.711848699721	344.911848992342
90086.25	100	577	16	1	20	1	1	7	0	0	0	stim002_stimuli_original_animals_birds_2.png	J	0	0	0	345.11184562766	345.311861767899
90186.25	100	578	16	1	20	2	9	10	0	0	0	stim010_stimuli_original_vehicles_boats_2.png	Q	0	0	0	345.511857671896	345.711870398605
90286.25	100	579	16	1	20	3	14	2	0	0	0	stim015_stimuli_original_vehicles_planes_3.png	C	0	0	0	345.911868984578	346.111875128699
90386.25	100	580	16	1	20	4	7	6	0	0	0	stim008_stimuli_original_animals_fish_4.png	G	0	0	0	346.311878834618	346.511876445264
90486.25	100	581	16	1	20	5	4	0	0	0	0	stim005_stimuli_original_animals_fish_1.png	A	0	0	0	346.711889415747	346.911900923587
90586.25	100	582	16	1	20	6	8	11	0	1	0	stim009_stimuli_original_vehicles_boats_1.png	R	0	0	0	347.111908774357	347.311921988847
90686.25	100	583	16	1	20	7	9	14	1	0	0	stim010_stimuli_original_vehicles_boats_2.png	V	0	0	0	347.511929839384	347.71191916056
90786.25	100	584	16	1	20	8	0	11	0	1	1	stim001_stimuli_original_animals_birds_1.png	R	0	0	0	347.911923841806	348.111942420015
90886.25	100	585	16	1	20	9	9	13	1	0	0	stim010_stimuli_original_vehicles_boats_2.png	U	0	0	0	348.311928571668	348.511966410792
90986.25	100	586	16	1	20	10	12	8	0	0	0	stim013_stimuli_original_vehicles_planes_1.png	K	0	0	0	348.711941834772	348.911955780815
91086.25	100	587	16	1	20	11	2	4	0	0	0	stim003_stimuli_original_animals_birds_3.png	E	d	349.104543047491	1	349.111956317211	349.312424967531
91186.25	100	588	16	1	20	12	5	3	0	0	0	stim006_stimuli_original_animals_fish_2.png	D	0	0	0	349.511975919362	349.711975724436
91286.25	100	589	16	1	20	13	11	12	0	0	0	stim012_stimuli_original_vehicles_boats_4.png	T	0	0	0	349.9119774797	350.111976309447
91386.25	100	590	16	1	20	14	10	9	0	0	0	stim011_stimuli_original_vehicles_boats_3.png	L	0	0	0	350.311985379318	350.511987866135
91486.25	100	591	16	1	20	15	3	11	0	0	0	stim004_stimuli_original_animals_birds_4.png	R	0	0	0	350.711992303375	350.911997228395
91586.25	100	592	16	1	20	16	6	1	0	0	0	stim007_stimuli_original_animals_fish_3.png	B	0	0	0	351.112015075283	351.312021219172
91686.25	100	593	16	1	20	17	15	5	0	0	0	stim016_stimuli_original_vehicles_planes_4.png	F	0	0	0	351.512028826168	351.712052768096
91786.25	100	594	16	1	20	18	5	15	0	0	0	stim006_stimuli_original_animals_fish_2.png	Y	0	0	0	351.912058424437	352.112037261948
91886.25	100	595	16	1	20	19	1	6	0	0	0	stim002_stimuli_original_animals_birds_2.png	G	0	0	0	352.31204364961	352.512047355529
91986.25	100	596	16	1	20	20	11	3	0	0	0	stim012_stimuli_original_vehicles_boats_4.png	D	d	352.903816202888	0	352.712050330127	352.912050622748
92086.25	100	597	16	1	20	21	9	10	0	0	0	stim010_stimuli_original_vehicles_boats_2.png	Q	0	0	0	353.11205993616	353.312097043963
92186.25	100	598	16	1	20	22	12	11	0	0	0	stim013_stimuli_original_vehicles_planes_1.png	R	0	0	0	353.512079782318	353.712081293808
92286.25	100	599	16	1	20	23	3	5	0	0	0	stim004_stimuli_original_animals_birds_4.png	F	0	0	0	353.912077929359	354.112096020021
92386.25	100	600	16	1	20	24	4	2	0	0	0	stim005_stimuli_original_animals_fish_1.png	C	0	0	0	354.312097287737	354.512107332703
92486.25	100	601	16	1	20	25	8	12	0	0	0	stim009_stimuli_original_vehicles_boats_1.png	T	0	0	0	354.712101530051	354.912100116024
92586.25	100	602	16	1	20	26	13	9	0	1	0	stim014_stimuli_original_vehicles_planes_2.png	L	0	0	0	355.112124545733	355.312131177168
92686.25	100	603	16	1	20	27	11	0	1	0	0	stim012_stimuli_original_vehicles_boats_4.png	A	0	0	0	355.512136345962	355.712136638584
92786.25	100	604	16	1	20	28	14	9	0	1	1	stim015_stimuli_original_vehicles_planes_3.png	L	0	0	0	355.912144733127	356.112149658147
92886.25	100	605	16	1	20	29	11	8	1	0	0	stim012_stimuli_original_vehicles_boats_4.png	K	0	0	0	356.312160190661	356.512155850884
92986.25	100	606	16	1	20	30	0	4	0	0	0	stim001_stimuli_original_animals_birds_1.png	E	0	0	0	356.712168821367	356.912168382667
93086.25	100	607	16	1	20	31	6	7	0	0	0	stim007_stimuli_original_animals_fish_3.png	J	0	0	0	357.112174526555	357.312188472599
93186.25	100	608	16	1	20	32	2	14	0	0	0	stim003_stimuli_original_animals_birds_3.png	V	0	0	0	357.512188521214	357.712189301383
93286.25	100	609	16	1	20	33	10	9	0	0	0	stim011_stimuli_original_vehicles_boats_3.png	L	0	0	0	357.912193982629	358.112200370291
93386.25	100	610	16	1	20	34	7	1	0	0	0	stim008_stimuli_original_animals_fish_4.png	B	0	0	0	358.312216754304	358.51221192698
93486.25	100	611	16	1	20	35	15	13	0	0	0	stim016_stimuli_original_vehicles_planes_4.png	U	0	0	0	358.712209050078	358.91221251199
95340.5	100	612	17	0	1	0	13	11	0	0	0	stim014_stimuli_original_vehicles_planes_2.png	R	0	0	0	366.129074421478	366.329075932968
95440.5	100	613	17	0	1	1	12	2	0	0	0	stim013_stimuli_original_vehicles_planes_1.png	C	0	0	0	366.529087440809	366.72908651433
95540.5	100	614	17	0	1	2	5	0	0	0	0	stim006_stimuli_original_animals_fish_2.png	A	0	0	0	366.929098265944	367.129097339464
95640.5	100	615	17	0	1	3	4	1	0	0	0	stim005_stimuli_original_animals_fish_1.png	B	0	0	0	367.329100557836	367.529101581778
95740.5	100	616	17	0	1	4	0	15	1	0	0	stim001_stimuli_original_animals_birds_1.png	Y	0	0	0	367.729115527589	367.929121915484
95840.5	100	617	17	0	1	5	6	7	0	0	0	stim007_stimuli_original_animals_fish_3.png	J	0	0	0	368.129128790926	368.329125426244
95940.5	100	618	17	0	1	6	0	3	1	0	1	stim001_stimuli_original_animals_birds_1.png	D	0	0	0	368.529201787431	368.7291428342
96040.5	100	619	17	0	1	7	10	8	0	0	0	stim011_stimuli_original_vehicles_boats_3.png	K	0	0	0	368.929169945884	369.129152196692
96140.5	100	620	17	0	1	8	9	13	0	0	0	stim010_stimuli_original_vehicles_boats_2.png	U	d	369.321735806065	1	369.329152976861	369.529155707452
96240.5	100	621	17	0	1	9	14	5	0	0	0	stim015_stimuli_original_vehicles_planes_3.png	F	0	0	0	369.729164289543	369.929174578283
96340.5	100	622	17	0	1	10	11	4	0	0	0	stim012_stimuli_original_vehicles_boats_4.png	E	0	0	0	370.129180722171	370.329202470137
96440.5	100	623	17	0	1	11	7	10	0	0	0	stim008_stimuli_original_animals_fish_4.png	Q	0	0	0	370.529218122596	370.729221097194
96540.5	100	624	17	0	1	12	8	3	0	1	0	stim009_stimuli_original_vehicles_boats_1.png	D	0	0	0	370.929208467714	371.129205103265
96640.5	100	625	17	0	1	13	2	9	0	0	0	stim003_stimuli_original_animals_birds_3.png	L	0	0	0	371.329209540505	371.529209833127
96740.5	100	626	17	0	1	14	1	3	0	1	0	stim002_stimuli_original_animals_birds_2.png	D	0	0	0	371.729406148428	371.929223827785
96840.5	100	627	17	0	1	15	0	14	0	0	0	stim001_stimuli_original_animals_birds_1.png	V	0	0	0	372.12925996026	372.329239041544
96940.5	100	628	17	0	1	16	3	6	0	0	0	stim004_stimuli_original_animals_birds_4.png	G	0	0	0	372.529244454112	372.72924767225
97040.5	100	629	17	0	1	17	15	12	0	0	0	stim016_stimuli_original_vehicles_planes_4.png	T	0	0	0	372.929250890622	373.129257278517
97140.5	100	630	17	0	1	18	12	15	0	0	0	stim013_stimuli_original_vehicles_planes_1.png	Y	0	0	0	373.329258790007	373.52926322748
97240.5	100	631	17	0	1	19	6	3	0	0	0	stim007_stimuli_original_animals_fish_3.png	D	0	0	0	373.729276929516	373.929274052614
97340.5	100	632	17	0	1	20	14	0	0	0	0	stim015_stimuli_original_vehicles_planes_3.png	A	0	0	0	374.129282634705	374.329290485242
97440.5	100	633	17	0	1	21	3	1	1	0	0	stim004_stimuli_original_animals_birds_4.png	B	0	0	0	374.529298579786	374.72930667433
97540.5	100	634	17	0	1	22	9	2	0	0	0	stim010_stimuli_original_vehicles_boats_2.png	C	d	374.921854931396	0	374.929317450617	375.129316524137
97640.5	100	635	17	0	1	23	3	8	1	0	1	stim004_stimuli_original_animals_birds_4.png	K	0	0	0	375.329320473829	375.529324179748
97740.5	100	636	17	0	1	24	10	7	0	0	0	stim011_stimuli_original_vehicles_boats_3.png	J	0	0	0	375.729328616988	375.92933549243
97840.5	100	637	17	0	1	25	4	11	0	0	0	stim005_stimuli_original_animals_fish_1.png	R	0	0	0	376.129340661224	376.32934241672
97940.5	100	638	17	0	1	26	5	14	0	0	0	stim006_stimuli_original_animals_fish_2.png	V	0	0	0	376.529359288281	376.729383230442
98040.5	100	639	17	0	1	27	13	9	0	0	0	stim014_stimuli_original_vehicles_planes_2.png	L	0	0	0	376.929373526713	377.129739045864
98140.5	100	640	17	0	1	28	8	10	0	0	0	stim009_stimuli_original_vehicles_boats_1.png	Q	0	0	0	377.329373624409	377.529377817875
98240.5	100	641	17	0	1	29	3	0	0	1	0	stim004_stimuli_original_animals_birds_4.png	A	0	0	0	377.729388594162	377.929386204807
98340.5	100	642	17	0	1	30	7	6	0	0	0	stim008_stimuli_original_animals_fish_4.png	G	0	0	0	378.129407708766	378.329405075638
98440.5	100	643	17	0	1	31	15	0	0	1	0	stim016_stimuli_original_vehicles_planes_4.png	A	0	0	0	378.529429993127	378.729412243702
98540.5	100	644	17	0	1	32	1	4	0	0	0	stim002_stimuli_original_animals_birds_2.png	E	d	379.121179384179	0	378.929413999198	379.129418436438
98640.5	100	645	17	0	1	33	0	5	0	0	0	stim001_stimuli_original_animals_birds_1.png	F	0	0	0	379.329427750083	379.529428774025
98740.5	100	646	17	0	1	34	2	12	0	0	0	stim003_stimuli_original_animals_birds_3.png	T	0	0	0	379.729435405694	379.929440086707
98840.5	100	647	17	0	1	35	11	13	0	0	0	stim012_stimuli_original_vehicles_boats_4.png	U	0	0	0	380.129448181251	380.329448230099
100394.75	100	648	18	1	0	0	0	9	0	0	0	stim001_stimuli_original_animals_birds_1.png	L	0	0	0	386.346270593349	386.546280882088
100494.75	100	649	18	1	0	1	4	11	0	0	0	stim005_stimuli_original_animals_fish_1.png	R	0	0	0	386.746282881359	386.946288293926
100594.75	100	650	18	1	0	2	12	13	0	0	0	stim013_stimuli_original_vehicles_planes_1.png	U	0	0	0	387.146292975172	387.346299119061
100694.75	100	651	18	1	0	3	13	2	0	0	0	stim014_stimuli_original_vehicles_planes_2.png	C	0	0	0	387.546309651574	387.746736610774
100794.75	100	652	18	1	0	4	5	8	0	0	0	stim006_stimuli_original_animals_fish_2.png	K	0	0	0	387.946316088317	388.146321500884
100894.75	100	653	18	1	0	5	2	7	0	0	0	stim003_stimuli_original_animals_birds_3.png	J	0	0	0	388.346335446695	388.546332813567
100994.75	100	654	18	1	0	6	3	1	0	0	0	stim004_stimuli_original_animals_birds_4.png	B	0	0	0	388.746338713681	388.946336812107
101094.75	100	655	18	1	0	7	15	10	0	0	0	stim016_stimuli_original_vehicles_planes_4.png	Q	0	0	0	389.146351977019	389.346352513414
101194.75	100	656	18	1	0	8	4	6	1	0	0	stim005_stimuli_original_animals_fish_1.png	G	0	0	0	389.546357438201	389.746360169025
101294.75	100	657	18	1	0	9	8	15	0	1	0	stim009_stimuli_original_vehicles_boats_1.png	Y	0	0	0	389.946368507342	390.146383916028
101394.75	100	658	18	1	0	10	4	14	1	0	0	stim005_stimuli_original_animals_fish_1.png	V	0	0	0	390.346403225791	390.54638279439
101494.75	100	659	18	1	0	11	1	15	0	1	1	stim002_stimuli_original_animals_birds_2.png	Y	0	0	0	390.746388206957	390.946389474906
101594.75	100	660	18	1	0	12	14	4	0	0	0	stim015_stimuli_original_vehicles_planes_3.png	E	d	391.138937488198	1	391.146404639818	391.346417122753
101694.75	100	661	18	1	0	13	7	12	0	0	0	stim008_stimuli_original_animals_fish_4.png	T	0	0	0	391.546417659149	391.746434530942
101794.75	100	662	18	1	0	14	10	5	0	0	0	stim011_stimuli_original_vehicles_boats_3.png	F	0	0	0	391.946433604462	392.146442917874
101894.75	100	663	18	1	0	15	9	0	0	0	0	stim010_stimuli_original_vehicles_boats_2.png	A	0	0	0	392.34644418559	392.546443990665
101994.75	100	664	18	1	0	16	11	15	0	0	0	stim012_stimuli_original_vehicles_boats_4.png	Y	0	0	0	392.746462568874	392.946456278674
102094.75	100	665	18	1	0	17	6	3	0	0	0	stim007_stimuli_original_animals_fish_3.png	D	0	0	0	393.146467054961	393.34647368663
102194.75	100	666	18	1	0	18	3	6	0	0	0	stim004_stimuli_original_animals_birds_4.png	G	0	0	0	393.546475442126	393.746469883248
102294.75	100	667	18	1	0	19	15	11	0	0	0	stim016_stimuli_original_vehicles_planes_4.png	R	0	0	0	393.946483585285	394.146485340782
102394.75	100	668	18	1	0	20	0	9	0	0	0	stim001_stimuli_original_animals_birds_1.png	L	0	0	0	394.346494166646	394.546491533518
102494.75	100	669	18	1	0	21	5	10	0	0	0	stim006_stimuli_original_animals_fish_2.png	Q	0	0	0	394.746503041359	394.946506503271
102594.75	100	670	18	1	0	22	12	7	0	0	0	stim013_stimuli_original_vehicles_planes_1.png	J	0	0	0	395.146517767338	395.346517572412
102694.75	100	671	18	1	0	23	4	14	0	0	0	stim005_stimuli_original_animals_fish_1.png	V	0	0	0	395.546519327676	395.746522789821
102794.75	100	672	18	1	0	24	15	1	1	0	0	stim016_stimuli_original_vehicles_planes_4.png	B	0	0	0	395.946537710959	396.146548487246
102894.75	100	673	18	1	0	25	14	4	0	1	0	stim015_stimuli_original_vehicles_planes_3.png	E	0	0	0	396.346549267648	396.546544196317
102994.75	100	674	18	1	0	26	15	8	1	0	0	stim016_stimuli_original_vehicles_planes_4.png	K	0	0	0	396.746552534634	396.946572575718
103094.75	100	675	18	1	0	27	6	4	0	1	1	stim007_stimuli_original_animals_fish_3.png	E	0	0	0	397.146572380792	397.346578280907
103194.75	100	676	18	1	0	28	10	15	0	0	0	stim011_stimuli_original_vehicles_boats_3.png	Y	0	0	0	397.546574916225	397.746582523221
103294.75	100	677	18	1	0	29	1	3	0	0	0	stim002_stimuli_original_animals_birds_2.png	D	0	0	0	397.946585253812	398.146582864458
103395	100	678	18	1	0	30	7	2	0	0	0	stim008_stimuli_original_animals_fish_4.png	C	0	0	0	398.347001777962	398.546599784866
103494.75	100	679	18	1	0	31	8	5	0	0	0	stim009_stimuli_original_vehicles_boats_1.png	F	0	0	0	398.746601540362	398.946603783406
103594.75	100	680	18	1	0	32	2	13	0	0	0	stim003_stimuli_original_animals_birds_3.png	U	0	0	0	399.146608708194	399.34664654755
103694.75	100	681	18	1	0	33	13	12	0	0	0	stim014_stimuli_original_vehicles_planes_2.png	T	0	0	0	399.546657811617	399.74665883556
103794.75	100	682	18	1	0	34	11	4	0	0	0	stim012_stimuli_original_vehicles_boats_4.png	E	0	0	0	399.946668880526	400.146640159655
103894.75	100	683	18	1	0	35	9	0	0	0	0	stim010_stimuli_original_vehicles_boats_2.png	A	0	0	0	400.346650448395	400.546652447665
111507.5	100	684	19	0	27	0	11	3	0	0	0	stim012_stimuli_original_vehicles_boats_4.png	D	0	0	0	430.797450436046	430.997458774364
111607.5	100	685	19	0	27	1	12	14	0	0	0	stim013_stimuli_original_vehicles_planes_1.png	V	0	0	0	431.19747198862	431.397470330819
111707.5	100	686	19	0	27	2	10	8	0	0	0	stim011_stimuli_original_vehicles_boats_3.png	K	0	0	0	431.597478425363	431.797481643502
111807.5	100	687	19	0	27	3	7	6	0	0	0	stim008_stimuli_original_animals_fish_4.png	G	0	0	0	431.997495101765	432.197491981089
111907.5	100	688	19	0	27	4	15	2	0	0	0	stim016_stimuli_original_vehicles_planes_4.png	C	0	0	0	432.397499587853	432.597500368254
112007.5	100	689	19	0	27	5	8	11	0	0	0	stim009_stimuli_original_vehicles_boats_1.png	R	0	0	0	432.797511632089	432.99750948674
112107.5	100	690	19	0	27	6	3	13	0	0	0	stim004_stimuli_original_animals_birds_4.png	U	0	0	0	433.197836240055	433.397520555649
112207.5	100	691	19	0	27	7	9	12	0	0	0	stim010_stimuli_original_vehicles_boats_2.png	T	0	0	0	433.597539377632	433.797527235933
112307.5	100	692	19	0	27	8	5	15	0	0	0	stim006_stimuli_original_animals_fish_2.png	Y	0	0	0	433.997547033243	434.197543912567
112407.5	100	693	19	0	27	9	15	1	1	0	0	stim016_stimuli_original_vehicles_planes_4.png	B	0	0	0	434.397551275557	434.5975522995
112507.5	100	694	19	0	27	10	2	0	0	0	0	stim003_stimuli_original_animals_birds_3.png	A	0	0	0	434.797554542543	434.997572145658
112607.5	100	695	19	0	27	11	15	4	1	0	1	stim016_stimuli_original_vehicles_planes_4.png	E	0	0	0	435.197578045772	435.397581995465
112707.5	100	696	19	0	27	12	14	12	0	1	0	stim015_stimuli_original_vehicles_planes_3.png	T	0	0	0	435.597587652039	435.797617201693
112807.5	100	697	19	0	27	13	13	9	0	0	0	stim014_stimuli_original_vehicles_planes_2.png	L	d	435.990146441618	1	435.997599939816	436.197607546812
112907.5	100	698	19	0	27	14	4	12	0	1	0	stim005_stimuli_original_animals_fish_1.png	T	0	0	0	436.397607595427	436.597619834822
113007.5	100	699	19	0	27	15	1	10	0	0	0	stim002_stimuli_original_animals_birds_2.png	Q	0	0	0	436.797640607227	436.997625783784
113107.5	100	700	19	0	27	16	6	5	0	0	0	stim007_stimuli_original_animals_fish_3.png	F	0	0	0	437.197658502962	437.397632464068
113207.5	100	701	19	0	27	17	0	7	0	0	0	stim001_stimuli_original_animals_birds_1.png	J	0	0	0	437.597635194659	437.797631098656
113307.5	100	702	19	0	27	18	7	0	0	0	0	stim008_stimuli_original_animals_fish_4.png	A	0	0	0	437.997640899848	438.19764411822
113407.5	100	703	19	0	27	19	5	6	0	0	0	stim006_stimuli_original_animals_fish_2.png	G	0	0	0	438.397656113608	438.59787364048
113507.5	100	704	19	0	27	20	10	1	0	0	0	stim011_stimuli_original_vehicles_boats_3.png	B	0	0	0	438.797663769219	438.997667231364
113607.5	100	705	19	0	27	21	12	4	1	0	0	stim013_stimuli_original_vehicles_planes_1.png	E	0	0	0	439.197674838128	439.397706338437
113707.5	100	706	19	0	27	22	9	13	0	0	0	stim010_stimuli_original_vehicles_boats_2.png	U	0	0	0	439.597685907036	439.797701072181
113807.5	100	707	19	0	27	23	12	14	1	0	1	stim013_stimuli_original_vehicles_planes_1.png	V	d	439.990308574867	1	439.997725745663	440.197728232481
113907.5	100	708	19	0	27	24	4	15	0	1	0	stim005_stimuli_original_animals_fish_1.png	Y	0	0	0	440.39771487168	440.597720771795
114007.5	100	709	19	0	27	25	0	2	0	0	0	stim001_stimuli_original_animals_birds_1.png	C	0	0	0	440.797728866339	440.997718918836
114107.5	100	710	19	0	27	26	1	15	0	1	0	stim002_stimuli_original_animals_birds_2.png	Y	0	0	0	441.197732133325	441.397730231751
114207.5	100	711	19	0	27	27	15	5	0	0	0	stim016_stimuli_original_vehicles_planes_4.png	F	0	0	0	441.597750029061	441.797751296777
114307.5	100	712	19	0	27	28	12	9	0	0	0	stim013_stimuli_original_vehicles_planes_1.png	L	0	0	0	441.997747200774	442.197752125794
114407.5	100	713	19	0	27	29	13	3	0	0	0	stim014_stimuli_original_vehicles_planes_2.png	D	0	0	0	442.397801667918	442.597790745087
114507.5	100	714	19	0	27	30	11	8	0	0	0	stim012_stimuli_original_vehicles_boats_4.png	K	d	442.790356800426	0	442.797798839631	442.997803764651
114607.5	100	715	19	0	27	31	2	15	0	0	0	stim003_stimuli_original_animals_birds_3.png	Y	0	0	0	443.197793817148	443.397796060191
114707.5	100	716	19	0	27	32	6	7	0	0	0	stim007_stimuli_original_animals_fish_3.png	J	0	0	0	443.597801960539	443.797804203583
114807.5	100	717	19	0	27	33	8	10	0	0	0	stim009_stimuli_original_vehicles_boats_1.png	Q	0	0	0	443.997816930292	444.197817466687
114907.5	100	718	19	0	27	34	14	12	0	0	0	stim015_stimuli_original_vehicles_planes_3.png	T	0	0	0	444.397829949856	444.597827560501
115007.5	100	719	19	0	27	35	3	11	0	0	0	stim004_stimuli_original_animals_birds_4.png	R	0	0	0	444.797820538748	444.997823269339
115657.75	100	720	20	1	29	0	0	8	0	0	0	stim001_stimuli_original_animals_birds_1.png	K	0	0	0	447.397906018188	447.597897046013
115757.5	100	721	20	1	29	1	15	11	0	0	0	stim016_stimuli_original_vehicles_planes_4.png	R	0	0	0	447.797918793978	447.997921037022
115857.5	100	722	20	1	29	2	7	14	0	0	0	stim008_stimuli_original_animals_fish_4.png	V	0	0	0	448.197912552394	448.397927961079
115957.75	100	723	20	1	29	3	12	7	0	0	0	stim013_stimuli_original_vehicles_planes_1.png	J	0	0	0	448.59792459663	448.797923426377
116057.75	100	724	20	1	29	4	10	6	0	0	0	stim011_stimuli_original_vehicles_boats_3.png	G	0	0	0	448.997932496015	449.197932544863
116157.75	100	725	20	1	29	5	14	0	1	1	0	stim015_stimuli_original_vehicles_planes_3.png	A	0	0	0	449.397953317268	449.597953853663
116257.75	100	726	20	1	29	6	2	1	0	0	0	stim003_stimuli_original_animals_birds_3.png	B	0	0	0	449.797952927183	449.997956389328
116357.75	100	727	20	1	29	7	14	0	1	1	1	stim015_stimuli_original_vehicles_planes_3.png	A	0	0	0	450.197963508544	450.397969164886
116457.75	100	728	20	1	29	8	4	3	0	0	0	stim005_stimuli_original_animals_fish_1.png	D	d	450.789741425542	1	450.597977259429	450.797976332949
116557.75	100	729	20	1	29	9	13	9	0	0	0	stim014_stimuli_original_vehicles_planes_2.png	L	0	0	0	450.99799320451	451.197990083834
116657.75	100	730	20	1	29	10	9	15	0	0	0	stim010_stimuli_original_vehicles_boats_2.png	Y	0	0	0	451.39799964102	451.598014806164
116757.75	100	731	20	1	29	11	5	5	0	0	0	stim006_stimuli_original_animals_fish_2.png	F	0	0	0	451.798037772998	451.998023680644
116857.75	100	732	20	1	29	12	14	2	0	0	0	stim015_stimuli_original_vehicles_planes_3.png	C	0	0	0	452.198033969384	452.39802621631
116957.75	100	733	20	1	29	13	3	0	0	0	0	stim004_stimuli_original_animals_birds_4.png	A	0	0	0	452.598035529954	452.798038260546
117057.75	100	734	20	1	29	14	11	12	0	0	0	stim012_stimuli_original_vehicles_boats_4.png	T	0	0	0	452.998043673113	453.198044697056
117157.75	100	735	20	1	29	15	1	10	0	0	0	stim002_stimuli_original_animals_birds_2.png	Q	0	0	0	453.398067907663	453.598059910815
117257.75	100	736	20	1	29	16	6	13	0	0	0	stim007_stimuli_original_animals_fish_3.png	U	0	0	0	453.798064592062	453.998063665582
117357.75	100	737	20	1	29	17	8	4	0	0	0	stim009_stimuli_original_vehicles_boats_1.png	E	0	0	0	454.198071759893	454.398075465811
117457.75	100	738	20	1	29	18	4	8	0	0	0	stim005_stimuli_original_animals_fish_1.png	K	0	0	0	454.598083072808	454.798113597557
117557.75	100	739	20	1	29	19	13	6	0	0	0	stim014_stimuli_original_vehicles_planes_2.png	G	0	0	0	454.998089996865	455.198092483683
117657.75	100	740	20	1	29	20	10	1	0	0	0	stim011_stimuli_original_vehicles_boats_3.png	B	0	0	0	455.398104966851	455.598119156435
117757.75	100	741	20	1	29	21	12	11	0	0	0	stim013_stimuli_original_vehicles_planes_1.png	R	0	0	0	455.798112134682	455.998128274921
117857.75	100	742	20	1	29	22	0	3	0	0	0	stim001_stimuli_original_animals_birds_1.png	D	0	0	0	456.198358479887	456.398150803056
117957.75	100	743	20	1	29	23	2	14	0	0	0	stim003_stimuli_original_animals_birds_3.png	V	0	0	0	456.598144756397	456.798147487221
118057.75	100	744	20	1	29	24	5	5	0	0	0	stim006_stimuli_original_animals_fish_2.png	F	0	0	0	456.998147048289	457.198152217083
118157.75	100	745	20	1	29	25	15	9	0	0	0	stim016_stimuli_original_vehicles_planes_4.png	L	0	0	0	457.398170307744	457.598176451633
118257.75	100	746	20	1	29	26	9	13	0	0	0	stim010_stimuli_original_vehicles_boats_2.png	U	0	0	0	457.79816699191	457.998169234954
118357.75	100	747	20	1	29	27	3	4	0	0	0	stim004_stimuli_original_animals_birds_4.png	E	0	0	0	458.19817635417	458.398183960933
118457.75	100	748	20	1	29	28	0	14	1	1	0	stim001_stimuli_original_animals_birds_1.png	V	0	0	0	458.598199857399	458.798215753864
118557.75	100	749	20	1	29	29	1	2	0	0	0	stim002_stimuli_original_animals_birds_2.png	C	0	0	0	458.998198735993	459.198201954132
118657.75	100	750	20	1	29	30	0	14	1	1	1	stim001_stimuli_original_animals_birds_1.png	V	0	0	0	459.398213705746	459.598213510821
118757.75	100	751	20	1	29	31	6	10	0	0	0	stim007_stimuli_original_animals_fish_3.png	Q	0	0	0	459.798224287108	459.998232137877
118857.75	100	752	20	1	29	32	7	12	0	0	0	stim008_stimuli_original_animals_fish_4.png	T	0	0	0	460.19823023607	460.398241500137
118957.75	100	753	20	1	29	33	14	7	0	0	0	stim015_stimuli_original_vehicles_planes_3.png	J	0	0	0	460.598265442066	460.798260614742
119057.75	100	754	20	1	29	34	11	15	0	0	0	stim012_stimuli_original_vehicles_boats_4.png	Y	0	0	0	460.99826675863	461.198265100829
119157.75	100	755	20	1	29	35	8	0	0	0	0	stim009_stimuli_original_vehicles_boats_1.png	A	0	0	0	461.398274414241	461.598727460951
121374.5	100	756	21	0	20	0	13	15	0	0	0	stim014_stimuli_original_vehicles_planes_2.png	Y	0	0	0	470.265164946904	470.465170847019
121474.5	100	757	21	0	20	1	1	7	0	0	0	stim002_stimuli_original_animals_birds_2.png	J	0	0	0	470.665179185336	470.86518386635
121574.5	100	758	21	0	20	2	9	10	0	0	0	stim010_stimuli_original_vehicles_boats_2.png	Q	0	0	0	471.065184158972	471.265187133569
121674.5	100	759	21	0	20	3	14	2	0	0	0	stim015_stimuli_original_vehicles_planes_3.png	C	0	0	0	471.465194252785	471.665197470924
121774.5	100	760	21	0	20	4	7	6	0	0	0	stim008_stimuli_original_animals_fish_4.png	G	0	0	0	471.86520459014	472.065211709589
121874.5	100	761	21	0	20	5	4	0	0	0	0	stim005_stimuli_original_animals_fish_1.png	A	0	0	0	472.265218828805	472.465217658551
121974.5	100	762	21	0	20	6	8	11	0	1	0	stim009_stimuli_original_vehicles_boats_1.png	R	0	0	0	472.665224046214	472.865227508359
122074.5	100	763	21	0	20	7	9	14	1	0	0	stim010_stimuli_original_vehicles_boats_2.png	V	0	0	0	473.065235602902	473.265240527689
122174.5	100	764	21	0	20	8	0	11	0	1	0	stim001_stimuli_original_animals_birds_1.png	R	0	0	0	473.465248866007	473.66525696055
122274.5	100	765	21	0	20	9	9	13	1	0	1	stim010_stimuli_original_vehicles_boats_2.png	U	0	0	0	473.865259447368	474.065261690412
122374.5	100	766	21	0	20	10	12	8	0	0	0	stim013_stimuli_original_vehicles_planes_1.png	K	0	0	0	474.265269053401	474.465275197523
122474.5	100	767	21	0	20	11	2	4	0	0	0	stim003_stimuli_original_animals_birds_3.png	E	0	0	0	474.665281585185	474.865708056837
122574.5	100	768	21	0	20	12	5	3	0	0	0	stim006_stimuli_original_animals_fish_2.png	D	d	475.257131182123	1	475.065354337916	475.265338539146
122674.5	100	769	21	0	20	13	11	12	0	0	0	stim012_stimuli_original_vehicles_boats_4.png	T	0	0	0	475.465331761166	475.665333516663
122774.5	100	770	21	0	20	14	10	9	0	0	0	stim011_stimuli_original_vehicles_boats_3.png	L	0	0	0	475.865324300714	476.065325324656
122874.5	100	771	21	0	20	15	3	11	0	0	0	stim004_stimuli_original_animals_birds_4.png	R	0	0	0	476.265339514473	476.46534078219
122974.5	100	772	21	0	20	16	6	1	0	0	0	stim007_stimuli_original_animals_fish_3.png	B	0	0	0	476.665338636609	476.865339416778
123074.5	100	773	21	0	20	17	15	5	0	0	0	stim016_stimuli_original_vehicles_planes_4.png	F	0	0	0	477.065349705517	477.265362676233
123174.5	100	774	21	0	20	18	5	15	0	0	0	stim006_stimuli_original_animals_fish_2.png	Y	0	0	0	477.465359555557	477.665354972007
123274.5	100	775	21	0	20	19	1	6	0	0	0	stim002_stimuli_original_animals_birds_2.png	G	0	0	0	477.865362091223	478.065368235111
123374.5	100	776	21	0	20	20	11	3	0	0	0	stim012_stimuli_original_vehicles_boats_4.png	D	0	0	0	478.26539022685	478.465378085151
123474.5	100	777	21	0	20	21	9	10	0	0	0	stim010_stimuli_original_vehicles_boats_2.png	Q	0	0	0	478.665398857556	478.86539866263
123574.5	100	778	21	0	20	22	12	11	0	0	0	stim013_stimuli_original_vehicles_planes_1.png	R	0	0	0	479.065409926465	479.26540144207
123674.5	100	779	21	0	20	23	3	5	0	0	0	stim004_stimuli_original_animals_birds_4.png	F	0	0	0	479.465442938264	479.665419581346
123774.5	100	780	21	0	20	24	4	2	0	0	0	stim005_stimuli_original_animals_fish_1.png	C	d	479.858007092029	0	479.86543060164	480.065426018089
123874.5	100	781	21	0	20	25	8	12	0	0	0	stim009_stimuli_original_vehicles_boats_1.png	T	d	480.457208762411	0	480.265447278274	480.465446839342
123974.5	100	782	21	0	20	26	13	9	0	1	0	stim014_stimuli_original_vehicles_planes_2.png	L	0	0	0	480.665454933885	480.86545790825
124074.5	100	783	21	0	20	27	11	0	1	0	0	stim012_stimuli_original_vehicles_boats_4.png	A	0	0	0	481.065461370395	481.265461419011
124174.5	100	784	21	0	20	28	14	9	0	1	0	stim015_stimuli_original_vehicles_planes_3.png	L	0	0	0	481.465467319358	481.6654741948
124274.5	100	785	21	0	20	29	11	8	1	0	1	stim012_stimuli_original_vehicles_boats_4.png	K	0	0	0	481.865483020665	482.065486970358
124374.5	100	786	21	0	20	30	0	4	0	0	0	stim001_stimuli_original_animals_birds_1.png	E	0	0	0	482.265489457175	482.465483654523
124474.5	100	787	21	0	20	31	6	7	0	0	0	stim007_stimuli_original_animals_fish_3.png	J	0	0	0	482.665492480388	482.865504963556
124574.5	100	788	21	0	20	32	2	14	0	0	0	stim003_stimuli_original_animals_birds_3.png	V	0	0	0	483.065501598874	483.265523346607
124674.5	100	789	21	0	20	33	10	9	0	0	0	stim011_stimuli_original_vehicles_boats_3.png	L	0	0	0	483.46553729265	483.665530514671
124774.5	100	790	21	0	20	34	7	1	0	0	0	stim008_stimuli_original_animals_fish_4.png	B	0	0	0	483.865539828315	484.065534025664
124874.5	100	791	21	0	20	35	15	13	0	0	0	stim016_stimuli_original_vehicles_planes_4.png	U	0	0	0	484.26554480195	484.465550458292
125607.75	100	792	22	1	47	0	5	4	0	0	0	stim006_stimuli_original_animals_fish_2.png	E	0	0	0	487.198982875794	487.398982680868
125707.75	100	793	22	1	47	1	0	15	0	0	0	stim001_stimuli_original_animals_birds_1.png	Y	0	0	0	487.598971758038	487.79897570773
125807.75	100	794	22	1	47	2	8	6	0	0	0	stim009_stimuli_original_vehicles_boats_1.png	G	0	0	0	487.998971855501	488.198970929254
125907.75	100	795	22	1	47	3	1	11	0	0	0	stim002_stimuli_original_animals_birds_2.png	R	0	0	0	488.398983655963	488.598980535287
