onset	duration	eventnumber	sequencenumber	condition	streamnumber	stimnumber	objectstimnumber	letterstimnumber	objecttarget	lettertarget	is2back	objectstim	letterstim	response	rt	correct	time_stimon	time_stimoff
53.104	0.2	0	0	0	6	0	15	5	0	0	0	stim016_stimuli_original_vehicles_planes_4.png	F	0	0	0	25.7378248882014	25.9378310322063
53.505	0.2	1	0	0	6	1	9	9	0	0	0	stim010_stimuli_original_vehicles_boats_2.png	L	0	0	0	26.1386156597873	26.3378464897396
53.904	0.2	2	0	0	6	2	4	4	0	0	0	stim005_stimuli_original_animals_fish_1.png	E	0	0	0	26.5378299595322	26.7378512197174
54.304	0.2	3	0	0	6	3	13	12	0	0	0	stim014_stimuli_original_vehicles_planes_2.png	T	0	0	0	26.9378622398945	27.1378266924294
54.704	0.2	4	0	0	6	4	5	10	0	0	0	stim006_stimuli_original_animals_fish_2.png	Q	0	0	0	27.3378730650293	27.5378694565734
55.104	0.2	5	0	0	6	5	10	13	0	0	0	stim011_stimuli_original_vehicles_boats_3.png	U	0	0	0	27.7378765757894	27.9378824760206
55.504	0.2	6	0	0	6	6	2	11	0	0	0	stim003_stimuli_original_animals_birds_3.png	R	0	0	0	28.1378893514629	28.3378962269053
55.904	0.2	7	0	0	6	7	11	1	0	1	0	stim012_stimuli_original_vehicles_boats_4.png	B	0	0	0	28.537901395699	28.7379014444305
56.304	0.2	8	0	0	6	8	1	0	0	0	0	stim002_stimuli_original_animals_birds_2.png	A	0	0	0	28.9379110017326	29.1379139762139
56.704	0.2	9	0	0	6	9	15	1	1	1	0	stim016_stimuli_original_vehicles_planes_4.png	B	0	0	0	29.3379257278284	29.5379233384738
57.104	0.2	10	0	0	6	10	6	3	0	0	0	stim007_stimuli_original_animals_fish_3.png	D	NaN	29.9296943800291	0	29.7379307015799	29.9379158779047
57.504	0.2	11	0	0	6	11	15	8	1	0	1	stim016_stimuli_original_vehicles_planes_4.png	K	0	0	0	30.1379400638398	30.337932798313
57.904	0.2	12	0	0	6	12	7	14	0	0	0	stim008_stimuli_original_animals_fish_4.png	V	0	0	0	30.5379369917791	30.737956301542
58.304	0.2	13	0	0	6	13	14	7	0	0	0	stim015_stimuli_original_vehicles_planes_3.png	J	0	0	0	30.9379619578831	31.1379710276378
58.704	0.2	14	0	0	6	14	8	1	0	0	0	stim009_stimuli_original_vehicles_boats_1.png	B	0	0	0	31.3379625430098	31.5379606413189
59.104	0.2	15	0	0	6	15	0	15	0	0	0	stim001_stimuli_original_animals_birds_1.png	Y	0	0	0	31.7379843395902	31.9379848759854
59.504	0.2	16	0	0	6	16	3	6	0	0	0	stim004_stimuli_original_animals_birds_4.png	G	0	0	0	32.1379949209513	32.3379796097288
59.904	0.2	17	0	0	6	17	12	2	0	0	0	stim013_stimuli_original_vehicles_planes_1.png	C	0	0	0	32.537987704156	32.7380138405133
60.304	0.2	18	0	0	6	18	2	12	0	0	0	stim003_stimuli_original_animals_birds_3.png	T	0	0	0	32.9380177903222	33.1380036980845
60.704	0.2	19	0	0	6	19	6	3	0	0	0	stim007_stimuli_original_animals_fish_3.png	D	0	0	0	33.3380293468945	33.5380274450872
61.104	0.2	20	0	0	6	20	15	0	0	0	0	stim016_stimuli_original_vehicles_planes_4.png	A	0	0	0	33.7380335890921	33.9380380264483
61.504	0.2	21	0	0	6	21	1	8	0	0	0	stim002_stimuli_original_animals_birds_2.png	K	0	0	0	34.1380500218365	34.338034710614
61.904	0.2	22	0	0	6	22	7	14	0	0	0	stim008_stimuli_original_animals_fish_4.png	V	0	0	0	34.5380552393617	34.7380591891706
62.304	0.2	23	0	0	6	23	14	7	0	0	0	stim015_stimuli_original_vehicles_planes_3.png	J	0	0	0	34.9380533864023	35.1380824485095
62.704	0.2	24	0	0	6	24	8	15	0	1	0	stim009_stimuli_original_vehicles_boats_1.png	Y	0	0	0	35.3380634802161	35.5380886412458
63.104	0.2	25	0	0	6	25	3	6	0	0	0	stim004_stimuli_original_animals_birds_4.png	G	0	0	0	35.7380925910547	35.9380906892475
63.504	0.2	26	0	0	6	26	1	15	1	1	0	stim002_stimuli_original_animals_birds_2.png	Y	0	0	0	36.1380995152285	36.3381017582724
63.904	0.2	27	0	0	6	27	0	1	0	0	0	stim001_stimuli_original_animals_birds_1.png	B	0	0	0	36.5381122907856	36.7381155090407
64.304	0.2	28	0	0	6	28	1	11	1	0	1	stim002_stimuli_original_animals_birds_2.png	R	0	0	0	36.9381218969356	37.1381219456671
64.704	0.2	29	0	0	6	29	11	2	0	0	0	stim012_stimuli_original_vehicles_boats_4.png	C	NaN	37.5298985947156	1	37.338131990633	37.5381356965518
65.104	0.2	30	0	0	6	30	13	10	0	0	0	stim014_stimuli_original_vehicles_planes_2.png	Q	0	0	0	37.7381279433612	37.9381431082729
65.504	0.2	31	0	0	6	31	10	5	0	0	0	stim011_stimuli_original_vehicles_boats_3.png	F	0	0	0	38.1381568104262	38.3381446687272
65.904	0.2	32	0	0	6	32	12	13	0	0	0	stim013_stimuli_original_vehicles_planes_1.png	U	0	0	0	38.5381605650764	38.7381664653076
66.304	0.2	33	0	0	6	33	4	4	0	0	0	stim005_stimuli_original_animals_fish_1.png	E	0	0	0	38.9381811425555	39.1381787533173
66.704	0.2	34	0	0	6	34	9	9	0	0	0	stim010_stimuli_original_vehicles_boats_2.png	L	0	0	0	39.3381831905572	39.5381683669984
67.104	0.2	35	0	0	6	35	5	15	0	0	0	stim006_stimuli_original_animals_fish_2.png	Y	0	0	0	39.7381803623866	39.938198940712
75.188	0.2	36	1	1	0	0	10	4	0	0	0	stim011_stimuli_original_vehicles_boats_3.png	E	0	0	0	47.8217404384632	48.02173658635
75.588	0.2	37	1	1	0	1	9	13	0	0	0	stim010_stimuli_original_vehicles_boats_2.png	U	0	0	0	48.2217456559883	48.4217476552585
75.988	0.2	38	1	1	0	2	0	2	0	0	0	stim001_stimuli_original_animals_birds_1.png	C	0	0	0	48.6217623326229	48.8219891241752
76.388	0.2	39	1	1	0	3	5	11	0	0	0	stim006_stimuli_original_animals_fish_2.png	R	0	0	0	49.0217670624843	49.2217719875043
76.788	0.2	40	1	1	0	4	13	15	0	0	0	stim014_stimuli_original_vehicles_planes_2.png	Y	0	0	0	49.4217774000717	49.6217847630614
77.188	0.2	41	1	1	0	5	7	8	0	0	0	stim008_stimuli_original_animals_fish_4.png	K	0	0	0	49.821788956644	50.021793637774
77.588	0.2	42	1	1	0	6	2	3	0	0	0	stim003_stimuli_original_animals_birds_3.png	D	0	0	0	50.2218097778969	50.4218008057214
77.988	0.2	43	1	1	0	7	12	7	0	0	0	stim013_stimuli_original_vehicles_planes_1.png	J	0	0	0	50.6218096315861	50.8218101679813
78.388	0.2	44	1	1	0	8	8	14	0	0	0	stim009_stimuli_original_vehicles_boats_1.png	V	0	0	0	51.0218189939624	51.2218234312022
78.788	0.2	45	1	1	0	9	14	15	0	1	0	stim015_stimuli_original_vehicles_planes_3.png	Y	0	0	0	51.4218281123322	51.621832062141
79.188	0.2	46	1	1	0	10	12	6	1	0	0	stim013_stimuli_original_vehicles_planes_1.png	G	0	0	0	51.8218462518416	52.0218416681746
79.588	0.2	47	1	1	0	11	4	15	0	1	1	stim005_stimuli_original_animals_fish_1.png	Y	NaN	52.2144430758199	1	52.2218507379293	52.4218563942704
79.988	0.2	48	1	1	0	12	12	12	1	0	0	stim013_stimuli_original_vehicles_planes_1.png	T	0	0	0	52.6218637573766	52.8218672194052
80.388	0.2	49	1	1	0	13	11	1	0	0	0	stim012_stimuli_original_vehicles_boats_4.png	B	0	0	0	53.0218787272461	53.2218770693289
80.788	0.2	50	1	1	0	14	3	9	0	0	0	stim004_stimuli_original_animals_birds_4.png	L	0	0	0	53.4218829695601	53.6218830182916
81.188	0.2	51	1	1	0	15	15	5	0	0	0	stim016_stimuli_original_vehicles_planes_4.png	F	0	0	0	53.8218979394296	54.0218982319348
81.588	0.2	52	1	1	0	16	1	0	0	0	0	stim002_stimuli_original_animals_birds_2.png	A	0	0	0	54.2219073016895	54.4219066189835
81.988	0.2	53	1	1	0	17	6	10	0	0	0	stim007_stimuli_original_animals_fish_3.png	Q	0	0	0	54.6219247096451	54.8219179317821
82.388	0.2	54	1	1	0	18	10	6	0	0	0	stim011_stimuli_original_vehicles_boats_3.png	G	0	0	0	55.0218999386998	55.2219253436197
82.788	0.2	55	1	1	0	19	0	1	0	0	0	stim001_stimuli_original_animals_birds_1.png	B	0	0	0	55.4219346571481	55.6219417763641
83.188	0.2	56	1	1	0	20	5	15	0	0	0	stim006_stimuli_original_animals_fish_2.png	Y	0	0	0	55.8219464574941	56.0219547958113
83.588	0.2	57	1	1	0	21	9	3	0	0	0	stim010_stimuli_original_vehicles_boats_2.png	D	0	0	0	56.2219555759802	56.421959281899
83.988	0.2	58	1	1	0	22	1	11	0	0	0	stim002_stimuli_original_animals_birds_2.png	R	0	0	0	56.6219846868189	56.8219664498465
84.388	0.2	59	1	1	0	23	12	12	0	1	0	stim013_stimuli_original_vehicles_planes_1.png	T	0	0	0	57.0219757633749	57.2219823950436
84.788	0.2	60	1	1	0	24	15	4	1	0	0	stim016_stimuli_original_vehicles_planes_4.png	E	0	0	0	57.4219868322834	57.6219905382022
85.188	0.2	61	1	1	0	25	6	12	0	1	1	stim007_stimuli_original_animals_fish_3.png	T	0	0	0	57.8220010708319	58.0220208681421
85.588	0.2	62	1	1	0	26	15	14	1	0	0	stim016_stimuli_original_vehicles_planes_4.png	V	0	0	0	58.2220089702168	58.4220082875108
85.988	0.2	63	1	1	0	27	14	8	0	0	0	stim015_stimuli_original_vehicles_planes_3.png	K	0	0	0	58.6220232086489	58.8220220383955
86.388	0.2	64	1	1	0	28	7	12	0	0	0	stim008_stimuli_original_animals_fish_4.png	T	0	0	0	59.0220276947366	59.222033107304
86.788	0.2	65	1	1	0	29	3	2	0	0	0	stim004_stimuli_original_animals_birds_4.png	C	0	0	0	59.4222416131524	59.622033448657
87.188	0.2	66	1	1	0	30	8	7	0	0	0	stim009_stimuli_original_vehicles_boats_1.png	J	0	0	0	59.8220356917009	60.0220640223706
87.588	0.2	67	1	1	0	31	15	13	0	0	0	stim016_stimuli_original_vehicles_planes_4.png	U	0	0	0	60.2220704101492	60.4220575370127
87.988	0.2	68	1	1	0	32	11	5	0	0	0	stim012_stimuli_original_vehicles_boats_4.png	F	0	0	0	60.6220639249077	60.8220839659916
88.388	0.2	69	1	1	0	33	2	0	0	0	0	stim003_stimuli_original_animals_birds_3.png	A	0	0	0	61.0220903537702	61.2220955225639
88.788	0.2	70	1	1	0	34	13	9	0	0	0	stim014_stimuli_original_vehicles_planes_2.png	L	0	0	0	61.4221021542326	61.6221053724876
89.188	0.2	71	1	1	0	35	4	10	0	0	0	stim005_stimuli_original_animals_fish_1.png	Q	0	0	0	61.8221115164924	62.0221203423571
92.088	0.2	72	2	0	14	0	6	15	0	0	0	stim007_stimuli_original_animals_fish_3.png	Y	0	0	0	64.7221889016218	64.9221904132282
92.488	0.2	73	2	0	14	1	11	0	0	0	0	stim012_stimuli_original_vehicles_boats_4.png	A	0	0	0	65.122196313343	65.3222051393241
92.888	0.2	74	2	0	14	2	15	14	0	0	0	stim016_stimuli_original_vehicles_planes_4.png	V	0	0	0	65.5222127462039	65.7222127949353
93.288	0.2	75	2	0	14	3	4	6	0	0	0	stim005_stimuli_original_animals_fish_1.png	G	0	0	0	65.9222199141514	66.122218743898
93.688	0.2	76	2	0	14	4	14	13	0	0	0	stim015_stimuli_original_vehicles_planes_3.png	U	0	0	0	66.3222268383252	66.5222278623842
94.088	0.2	77	2	0	14	5	3	5	0	0	0	stim004_stimuli_original_animals_birds_4.png	F	0	0	0	66.7222057244508	66.9222225960111
94.488	0.2	78	2	0	14	6	9	12	0	0	0	stim010_stimuli_original_vehicles_boats_2.png	T	0	0	0	67.122245806735	67.3222519507399
94.888	0.2	79	2	0	14	7	7	4	0	0	0	stim008_stimuli_original_animals_fish_4.png	E	0	0	0	67.5222366395174	67.722226204467
95.288	0.2	80	2	0	14	8	1	1	0	0	0	stim002_stimuli_original_animals_birds_2.png	B	0	0	0	67.9222367369803	68.122241905774
95.688	0.2	81	2	0	14	9	8	10	0	0	0	stim009_stimuli_original_vehicles_boats_1.png	Q	0	0	0	68.3222765754908	68.5222800375195
96.088	0.2	82	2	0	14	10	7	11	1	0	0	stim008_stimuli_original_animals_fish_4.png	R	0	0	0	68.7222861815244	68.9222737960517
96.488	0.2	83	2	0	14	11	0	4	0	1	0	stim001_stimuli_original_animals_birds_1.png	E	NaN	69.314071656554	0	69.1223065152299	69.3223009563517
96.888	0.2	84	2	0	14	12	7	2	1	0	1	stim008_stimuli_original_animals_fish_4.png	C	0	0	0	69.5223100261064	69.7223137320252
97.288	0.2	85	2	0	14	13	5	4	0	1	0	stim006_stimuli_original_animals_fish_2.png	E	0	0	0	69.9223181693815	70.1223045648076
97.688	0.2	86	2	0	14	14	10	8	0	0	0	stim011_stimuli_original_vehicles_boats_3.png	K	NaN	70.314855260076	1	70.3223328954773	70.5223446470918
98.088	0.2	87	2	0	14	15	12	9	0	0	0	stim013_stimuli_original_vehicles_planes_1.png	L	0	0	0	70.7223381130025	70.9223267026246
98.488	0.2	88	2	0	14	16	13	3	0	0	0	stim014_stimuli_original_vehicles_planes_2.png	D	0	0	0	71.1223521076608	71.3223528878298
98.888	0.2	89	2	0	14	17	2	7	0	0	0	stim003_stimuli_original_animals_birds_3.png	J	0	0	0	71.5223600070458	71.7223615186522
99.289	0.2	90	2	0	14	18	7	2	0	0	0	stim008_stimuli_original_animals_fish_4.png	C	0	0	0	71.9225814834936	72.1223847781075
99.688	0.2	91	2	0	14	19	3	13	0	0	0	stim004_stimuli_original_animals_birds_4.png	U	0	0	0	72.3223804383306	72.5223887765314
100.088	0.2	92	2	0	14	20	9	12	0	0	0	stim010_stimuli_original_vehicles_boats_2.png	T	0	0	0	72.7223988214973	72.9223944817204
100.488	0.2	93	2	0	14	21	8	10	0	0	0	stim009_stimuli_original_vehicles_boats_1.png	Q	0	0	0	73.12240477046	73.3224089639261
100.888	0.2	94	2	0	14	22	4	5	1	0	0	stim005_stimuli_original_animals_fish_1.png	F	0	0	0	73.5224153518211	73.722420032951
101.288	0.2	95	2	0	14	23	2	7	0	1	0	stim003_stimuli_original_animals_birds_3.png	J	0	0	0	73.9224205693463	74.1224286637735
101.688	0.2	96	2	0	14	24	4	0	1	0	1	stim005_stimuli_original_animals_fish_1.png	A	0	0	0	74.3224321259186	74.5224353441736
102.088	0.2	97	2	0	14	25	11	7	0	1	0	stim012_stimuli_original_vehicles_boats_4.png	J	0	0	0	74.7224444139283	74.9224434874486
102.488	0.2	98	2	0	14	26	10	8	0	0	0	stim011_stimuli_original_vehicles_boats_3.png	K	0	0	0	75.1224496313371	75.3224608954042
102.888	0.2	99	2	0	14	27	1	1	0	0	0	stim002_stimuli_original_animals_birds_2.png	B	0	0	0	75.5224641136592	75.7224666004768
103.288	0.2	100	2	0	14	28	4	7	0	0	0	stim005_stimuli_original_animals_fish_1.png	J	0	0	0	75.9224820092786	76.1224635285325
103.688	0.2	101	2	0	14	29	12	9	0	0	0	stim013_stimuli_original_vehicles_planes_1.png	L	0	0	0	76.3224877144676	76.5224897136213
104.088	0.2	102	2	0	14	30	5	3	0	0	0	stim006_stimuli_original_animals_fish_2.png	D	0	0	0	76.7225009776885	76.9224961502478
104.488	0.2	103	2	0	14	31	13	14	0	0	0	stim014_stimuli_original_vehicles_planes_2.png	V	0	0	0	77.1224920542445	77.3227629752364
104.889	0.2	104	2	0	14	32	6	4	0	0	0	stim007_stimuli_original_animals_fish_3.png	E	0	0	0	77.5225199459819	77.7225226766896
105.289	0.2	105	2	0	14	33	14	15	0	0	0	stim015_stimuli_original_vehicles_planes_3.png	Y	0	0	0	77.922528089257	78.1225325266132
105.689	0.2	106	2	0	14	34	0	11	0	0	0	stim001_stimuli_original_animals_birds_1.png	R	0	0	0	78.322523066774	78.5225443269592
106.089	0.2	107	2	0	14	35	15	6	0	0	0	stim016_stimuli_original_vehicles_planes_4.png	G	0	0	0	78.7225529090501	78.9225541768828
109.139	0.2	108	3	1	4	0	11	13	0	0	0	stim012_stimuli_original_vehicles_boats_4.png	U	0	0	0	81.7726330736186	81.9726326348027
109.539	0.2	109	3	1	4	1	6	7	0	0	0	stim007_stimuli_original_animals_fish_3.png	J	0	0	0	82.1726448739646	82.3726329760393
109.939	0.2	110	3	1	4	2	15	9	0	0	0	stim016_stimuli_original_vehicles_planes_4.png	L	0	0	0	82.5726525295759	82.7726557479473
110.339	0.2	111	3	1	4	3	14	6	0	0	0	stim015_stimuli_original_vehicles_planes_3.png	G	0	0	0	82.9726640861481	83.1726646225434
110.739	0.2	112	3	1	4	4	0	0	0	0	0	stim001_stimuli_original_animals_birds_1.png	A	0	0	0	83.372690515127	83.5726620381465
111.139	0.2	113	3	1	4	5	13	15	0	0	0	stim014_stimuli_original_vehicles_planes_2.png	Y	0	0	0	83.7726820793469	83.9726689623203
111.539	0.2	114	3	1	4	6	2	4	0	0	0	stim003_stimuli_original_animals_birds_3.png	E	0	0	0	84.1726916853804	84.3726785684703
111.939	0.2	115	3	1	4	7	9	8	0	1	0	stim010_stimuli_original_vehicles_boats_2.png	K	0	0	0	84.5731267390074	84.7726954888785
112.339	0.2	116	3	1	4	8	5	2	0	0	0	stim006_stimuli_original_animals_fish_2.png	C	0	0	0	84.9727184557123	85.1727194796549
112.739	0.2	117	3	1	4	9	1	8	0	1	1	stim002_stimuli_original_animals_birds_2.png	K	0	0	0	85.3727261113236	85.5727266477188
113.139	0.2	118	3	1	4	10	10	14	1	0	0	stim011_stimuli_original_vehicles_boats_3.png	V	0	0	0	85.7727342544822	85.9727403984871
113.539	0.2	119	3	1	4	11	8	10	0	0	0	stim009_stimuli_original_vehicles_boats_1.png	Q	0	0	0	86.1727482491406	86.3727334255818
113.939	0.2	120	3	1	4	12	10	3	1	0	0	stim011_stimuli_original_vehicles_boats_3.png	D	0	0	0	86.5727385943756	86.7727444944903
114.339	0.2	121	3	1	4	13	12	1	0	0	0	stim013_stimuli_original_vehicles_planes_1.png	B	0	0	0	86.9727659985656	87.1727901843842
114.739	0.2	122	3	1	4	14	7	11	0	0	0	stim008_stimuli_original_animals_fish_4.png	R	0	0	0	87.3727814559825	87.5727797981817
115.139	0.2	123	3	1	4	15	3	8	0	0	0	stim004_stimuli_original_animals_birds_4.png	K	0	0	0	87.7727744830772	87.9727952555986
115.539	0.2	124	3	1	4	16	10	5	0	0	0	stim011_stimuli_original_vehicles_boats_3.png	F	0	0	0	88.1727979863063	88.372784625506
115.939	0.2	125	3	1	4	17	4	12	0	0	0	stim005_stimuli_original_animals_fish_1.png	T	0	0	0	88.5728280723561	88.7727978888433
116.339	0.2	126	3	1	4	18	12	4	0	0	0	stim013_stimuli_original_vehicles_planes_1.png	E	0	0	0	88.972820611787	89.1728267557919
116.739	0.2	127	3	1	4	19	5	10	0	0	0	stim006_stimuli_original_animals_fish_2.png	Q	0	0	0	89.3728194902651	89.572815638152
117.139	0.2	128	3	1	4	20	8	3	0	0	0	stim009_stimuli_original_vehicles_boats_1.png	D	0	0	0	89.7728398239706	89.9730095640989
117.539	0.2	129	3	1	4	21	11	7	0	0	0	stim012_stimuli_original_vehicles_boats_4.png	J	0	0	0	90.1728547939565	90.3728660579072
117.939	0.2	130	3	1	4	22	1	12	0	0	0	stim002_stimuli_original_animals_birds_2.png	T	0	0	0	90.572860499029	90.7728495764313
118.339	0.2	131	3	1	4	23	3	10	0	1	0	stim004_stimuli_original_animals_birds_4.png	Q	0	0	0	90.9728771756636	91.172873323434
118.739	0.2	132	3	1	4	24	10	8	0	0	0	stim011_stimuli_original_vehicles_boats_3.png	K	0	0	0	91.3728855627123	91.5728568419581
119.139	0.2	133	3	1	4	25	14	10	0	1	1	stim015_stimuli_original_vehicles_planes_3.png	Q	0	0	0	91.7728963878471	91.972896924126
119.539	0.2	134	3	1	4	26	8	1	1	0	0	stim009_stimuli_original_vehicles_boats_1.png	B	0	0	0	92.1729062376544	92.3729087245883
119.939	0.2	135	3	1	4	27	2	5	0	0	0	stim003_stimuli_original_animals_birds_3.png	F	0	0	0	92.5729146247031	92.772916867747
120.339	0.2	136	3	1	4	28	8	9	1	0	0	stim009_stimuli_original_vehicles_boats_1.png	L	0	0	0	92.972925693728	93.1729308624053
120.739	0.2	137	3	1	4	29	4	2	0	0	0	stim005_stimuli_original_animals_fish_1.png	C	0	0	0	93.3729360311991	93.5729372990318
121.139	0.2	138	3	1	4	30	15	13	0	0	0	stim016_stimuli_original_vehicles_planes_4.png	U	0	0	0	93.7729468563339	93.9729466612916
121.539	0.2	139	3	1	4	31	0	0	0	0	0	stim001_stimuli_original_animals_birds_1.png	A	0	0	0	94.1729569500312	94.3729599245125
121.939	0.2	140	3	1	4	32	6	14	0	0	0	stim007_stimuli_original_animals_fish_3.png	V	0	0	0	94.5729660685174	94.7729527078336
122.339	0.2	141	3	1	4	33	9	15	0	0	0	stim010_stimuli_original_vehicles_boats_2.png	Y	0	0	0	94.9729764061049	95.1729808433447
122.739	0.2	142	3	1	4	34	7	6	0	0	0	stim008_stimuli_original_animals_fish_4.png	G	0	0	0	95.3729955207091	95.572990205721
123.139	0.2	143	3	1	4	35	13	11	0	0	0	stim014_stimuli_original_vehicles_planes_2.png	R	0	0	0	95.7729831839679	95.9730000555282
128.239	0.2	144	4	0	38	0	12	15	0	0	0	stim013_stimuli_original_vehicles_planes_1.png	Y	0	0	0	100.873133029207	101.073129664641
128.639	0.2	145	4	0	38	1	11	8	0	0	0	stim012_stimuli_original_vehicles_boats_4.png	K	0	0	0	101.27313995338	101.473141465103
129.039	0.2	146	4	0	38	2	7	10	0	0	0	stim008_stimuli_original_animals_fish_4.png	Q	0	0	0	101.673148096655	101.873156434973
129.439	0.2	147	4	0	38	3	5	9	0	0	0	stim006_stimuli_original_animals_fish_2.png	L	0	0	0	102.073163066525	102.273163359147
129.839	0.2	148	4	0	38	4	4	4	0	0	0	stim005_stimuli_original_animals_fish_1.png	E	0	0	0	102.473168771714	102.673174428055
130.239	0.2	149	4	0	38	5	6	3	0	0	0	stim007_stimuli_original_animals_fish_3.png	D	0	0	0	102.873188130208	103.073196224635
130.639	0.2	150	4	0	38	6	15	1	0	0	0	stim016_stimuli_original_vehicles_planes_4.png	B	0	0	0	103.27321065811	103.473193640239
131.039	0.2	151	4	0	38	7	14	13	0	0	0	stim015_stimuli_original_vehicles_planes_3.png	U	0	0	0	103.673202709993	103.873208366334
131.439	0.2	152	4	0	38	8	6	12	1	0	0	stim007_stimuli_original_animals_fish_3.png	T	0	0	0	104.073213291354	104.273213827633
131.839	0.2	153	4	0	38	9	0	3	0	1	0	stim001_stimuli_original_animals_birds_1.png	D	0	0	0	104.473223628826	104.6732439138
132.239	0.2	154	4	0	38	10	6	0	1	0	1	stim007_stimuli_original_animals_fish_3.png	A	0	0	0	104.873243474867	105.07323913509
132.639	0.2	155	4	0	38	11	9	3	0	1	0	stim010_stimuli_original_vehicles_boats_2.png	D	0	0	0	105.273245522869	105.473246303154
133.039	0.2	156	4	0	38	12	1	2	0	0	0	stim002_stimuli_original_animals_birds_2.png	C	0	0	0	105.673254397581	105.873259810149
133.439	0.2	157	4	0	38	13	13	11	0	0	0	stim014_stimuli_original_vehicles_planes_2.png	R	0	0	0	106.073264978942	106.273265515338
133.839	0.2	158	4	0	38	14	2	6	0	0	0	stim003_stimuli_original_animals_birds_3.png	G	0	0	0	106.47327482875	106.673281460418
134.239	0.2	159	4	0	38	15	8	5	0	0	0	stim009_stimuli_original_vehicles_boats_1.png	F	0	0	0	106.873291749158	107.07328911603
134.639	0.2	160	4	0	38	16	10	7	0	0	0	stim011_stimuli_original_vehicles_boats_3.png	J	0	0	0	107.273297698121	107.473302379251
135.039	0.2	161	4	0	38	17	3	14	0	0	0	stim004_stimuli_original_animals_birds_4.png	V	0	0	0	107.673306328943	107.873316130135
135.439	0.2	162	4	0	38	18	14	3	0	0	0	stim015_stimuli_original_vehicles_planes_3.png	D	0	0	0	108.07331934839	108.273321591434
135.839	0.2	163	4	0	38	19	7	10	0	0	0	stim008_stimuli_original_animals_fish_4.png	Q	0	0	0	108.473327979213	108.673334123218
136.239	0.2	164	4	0	38	20	5	8	0	0	0	stim006_stimuli_original_animals_fish_2.png	K	0	0	0	108.873338073026	109.073344948352
136.639	0.2	165	4	0	38	21	6	2	0	0	0	stim007_stimuli_original_animals_fish_3.png	C	0	0	0	109.273347922834	109.473350653541
137.039	0.2	166	4	0	38	22	11	13	0	0	0	stim012_stimuli_original_vehicles_boats_4.png	U	0	0	0	109.673360210843	109.873365135863
137.44	0.2	167	4	0	38	23	2	1	0	0	0	stim003_stimuli_original_animals_birds_3.png	B	0	0	0	110.073811355862	110.273388151429
137.839	0.2	168	4	0	38	24	3	9	1	0	0	stim004_stimuli_original_animals_birds_4.png	L	0	0	0	110.473382105003	110.67338069086
138.239	0.2	169	4	0	38	25	0	6	0	1	0	stim001_stimuli_original_animals_birds_1.png	G	0	0	0	110.873395611998	111.073391759768
138.639	0.2	170	4	0	38	26	3	0	1	0	1	stim004_stimuli_original_animals_birds_4.png	A	0	0	0	111.273403023835	111.473405510653
139.039	0.2	171	4	0	38	27	12	6	0	1	0	stim013_stimuli_original_vehicles_planes_1.png	G	0	0	0	111.673411654658	111.873420236749
139.439	0.2	172	4	0	38	28	13	14	0	0	0	stim014_stimuli_original_vehicles_planes_2.png	V	NaN	112.066024570144	1	112.073422967456	112.273423503852
139.839	0.2	173	4	0	38	29	1	15	0	0	0	stim002_stimuli_original_animals_birds_2.png	Y	0	0	0	112.473435011576	112.673435547971
140.239	0.2	174	4	0	38	30	3	6	0	0	0	stim004_stimuli_original_animals_birds_4.png	G	0	0	0	112.873443398625	113.073451249278
140.639	0.2	175	4	0	38	31	4	4	0	0	0	stim005_stimuli_original_animals_fish_1.png	E	0	0	0	113.273454711423	113.473456466803
141.039	0.2	176	4	0	38	32	9	5	0	0	0	stim010_stimuli_original_vehicles_boats_2.png	F	0	0	0	113.673465780332	113.873473387212
141.439	0.2	177	4	0	38	33	10	7	0	0	0	stim011_stimuli_original_vehicles_boats_3.png	J	0	0	0	114.073496841709	114.273461294244
141.839	0.2	178	4	0	38	34	8	11	0	0	0	stim009_stimuli_original_vehicles_boats_1.png	R	0	0	0	114.473485236405	114.673489429872
142.239	0.2	179	4	0	38	35	15	12	0	0	0	stim016_stimuli_original_vehicles_planes_4.png	T	0	0	0	114.873481189134	115.07350074267
145.323	0.2	180	5	1	20	0	15	1	0	0	0	stim016_stimuli_original_vehicles_planes_4.png	B	0	0	0	117.956916922354	118.156913557788
145.723	0.2	181	5	1	20	1	10	13	0	0	0	stim011_stimuli_original_vehicles_boats_3.png	U	0	0	0	118.356923602754	118.556926333462
146.123	0.2	182	5	1	20	2	4	7	0	0	0	stim005_stimuli_original_animals_fish_1.png	J	0	0	0	118.756936134538	118.956933501409
146.523	0.2	183	5	1	20	3	5	9	0	0	0	stim006_stimuli_original_animals_fish_2.png	L	0	0	0	119.156945740688	119.35694676463
146.923	0.2	184	5	1	20	4	0	5	0	0	0	stim001_stimuli_original_animals_birds_1.png	F	0	0	0	119.556959491572	119.756956858444
147.323	0.2	185	5	1	20	5	7	6	0	0	0	stim008_stimuli_original_animals_fish_4.png	G	0	0	0	119.95696373377	120.15698670072
147.723	0.2	186	5	1	20	6	1	2	0	0	0	stim002_stimuli_original_animals_birds_2.png	C	0	0	0	120.356973827584	120.556979240151
148.123	0.2	187	5	1	20	7	12	10	0	0	0	stim013_stimuli_original_vehicles_planes_1.png	Q	0	0	0	120.756987090805	120.956988358521
148.523	0.2	188	5	1	20	8	11	15	0	0	0	stim012_stimuli_original_vehicles_boats_4.png	Y	0	0	0	121.15699499019	121.357000158983
148.923	0.2	189	5	1	20	9	14	14	0	1	0	stim015_stimuli_original_vehicles_planes_3.png	V	0	0	0	121.557010691497	121.757012203103
149.323	0.2	190	5	1	20	10	1	0	1	0	0	stim002_stimuli_original_animals_birds_2.png	A	0	0	0	121.957015909022	122.157023272128
149.723	0.2	191	5	1	20	11	3	14	0	1	1	stim004_stimuli_original_animals_birds_4.png	V	0	0	0	122.357027953258	122.557032146724
150.123	0.2	192	5	1	20	12	1	3	1	0	0	stim002_stimuli_original_animals_birds_2.png	D	NaN	122.964108081651	1	122.757037559291	122.957267520367
150.523	0.2	193	5	1	20	13	2	8	0	0	0	stim003_stimuli_original_animals_birds_3.png	K	0	0	0	123.157048140652	123.35705087136
150.923	0.2	194	5	1	20	14	9	4	0	0	0	stim010_stimuli_original_vehicles_boats_2.png	E	0	0	0	123.557065792498	123.757060965057
151.323	0.2	195	5	1	20	15	13	12	0	0	0	stim014_stimuli_original_vehicles_planes_2.png	T	0	0	0	123.957069790922	124.157069839654
151.723	0.2	196	5	1	20	16	8	11	0	0	0	stim009_stimuli_original_vehicles_boats_1.png	R	0	0	0	124.357083297917	124.557079933351
152.123	0.2	197	5	1	20	17	6	14	0	0	0	stim007_stimuli_original_animals_fish_3.png	V	0	0	0	124.757090222207	124.957091977587
152.523	0.2	198	5	1	20	18	14	6	0	0	0	stim015_stimuli_original_vehicles_planes_3.png	G	0	0	0	125.15710275399	125.357103534159
152.923	0.2	199	5	1	20	19	11	8	0	0	0	stim012_stimuli_original_vehicles_boats_4.png	K	NaN	125.54967446567	0	125.55712040572	125.75711411552
153.323	0.2	200	5	1	20	20	12	13	0	0	0	stim013_stimuli_original_vehicles_planes_1.png	U	0	0	0	125.957125135697	126.157124452991
153.723	0.2	201	5	1	20	21	4	9	0	0	0	stim005_stimuli_original_animals_fish_1.png	L	0	0	0	126.35713084077	126.557136009564
154.123	0.2	202	5	1	20	22	8	2	0	0	0	stim009_stimuli_original_vehicles_boats_1.png	C	0	0	0	126.75714312878	126.957149272785
154.523	0.2	203	5	1	20	23	3	1	0	1	0	stim004_stimuli_original_animals_birds_4.png	B	0	0	0	127.157155660563	127.357157659833
154.923	0.2	204	5	1	20	24	14	3	1	0	0	stim015_stimuli_original_vehicles_planes_3.png	D	0	0	0	127.55716575426	127.757169947843
155.323	0.2	205	5	1	20	25	0	1	0	1	1	stim001_stimuli_original_animals_birds_1.png	B	0	0	0	127.957145615714	128.157181016752
155.723	0.2	206	5	1	20	26	14	14	1	0	0	stim015_stimuli_original_vehicles_planes_3.png	V	0	0	0	128.357189842733	128.557187940925
156.123	0.2	207	5	1	20	27	15	11	0	0	0	stim016_stimuli_original_vehicles_planes_4.png	R	NaN	128.749748388655	1	128.75724430976	128.957201204263
156.523	0.2	208	5	1	20	28	10	12	0	0	0	stim011_stimuli_original_vehicles_boats_3.png	T	0	0	0	129.157205885393	129.357209591311
156.923	0.2	209	5	1	20	29	2	1	0	0	0	stim003_stimuli_original_animals_birds_3.png	B	0	0	0	129.557214516215	129.757222123095
157.323	0.2	210	5	1	20	30	6	7	0	0	0	stim007_stimuli_original_animals_fish_3.png	J	0	0	0	129.957224853686	130.157228803379
157.723	0.2	211	5	1	20	31	5	0	0	0	0	stim006_stimuli_original_animals_fish_2.png	A	0	0	0	130.357238848344	130.557241335278
158.123	0.2	212	5	1	20	32	9	5	0	0	0	stim010_stimuli_original_vehicles_boats_2.png	F	0	0	0	130.75726503355	130.957254598499
158.523	0.2	213	5	1	20	33	7	4	0	0	0	stim008_stimuli_original_animals_fish_4.png	E	0	0	0	131.157256597769	131.357263960759
158.923	0.2	214	5	1	20	34	13	10	0	0	0	stim014_stimuli_original_vehicles_planes_2.png	Q	0	0	0	131.557268641889	131.757272104034
159.323	0.2	215	5	1	20	35	1	15	0	0	0	stim002_stimuli_original_animals_birds_2.png	Y	0	0	0	131.95728751272	132.15730170242
163.84	0.2	216	6	0	15	0	1	10	0	0	0	stim002_stimuli_original_animals_birds_2.png	Q	0	0	0	136.474066478084	136.674068233464
164.24	0.2	217	6	0	15	1	9	4	0	0	0	stim010_stimuli_original_vehicles_boats_2.png	E	0	0	0	136.87407559657	137.074098563404
164.64	0.2	218	6	0	15	2	10	15	0	0	0	stim011_stimuli_original_vehicles_boats_3.png	Y	0	0	0	137.27409056644	137.474061845685
165.04	0.2	219	6	0	15	3	5	1	0	0	0	stim006_stimuli_original_animals_fish_2.png	B	0	0	0	137.674098222051	137.874098758446
165.44	0.2	220	6	0	15	4	0	14	1	0	0	stim001_stimuli_original_animals_birds_1.png	V	0	0	0	138.074111729045	138.274112265441
165.84	0.2	221	6	0	15	5	7	12	0	0	0	stim008_stimuli_original_animals_fish_4.png	T	0	0	0	138.474117190461	138.674129185849
166.24	0.2	222	6	0	15	6	0	9	1	0	1	stim001_stimuli_original_animals_birds_1.png	L	0	0	0	138.874126796494	139.074134403374
166.64	0.2	223	6	0	15	7	13	3	0	0	0	stim014_stimuli_original_vehicles_planes_2.png	D	0	0	0	139.274140303489	139.474144253298
167.04	0.2	224	6	0	15	8	6	6	0	0	0	stim007_stimuli_original_animals_fish_3.png	G	NaN	139.865913100424	1	139.674151372514	139.874153371667
167.44	0.2	225	6	0	15	9	8	2	0	0	0	stim009_stimuli_original_vehicles_boats_1.png	C	0	0	0	140.074164148071	140.27416517213
167.84	0.2	226	6	0	15	10	0	7	0	1	0	stim001_stimuli_original_animals_birds_1.png	J	0	0	0	140.474172291346	140.67417453439
168.24	0.2	227	6	0	15	11	12	11	0	0	0	stim013_stimuli_original_vehicles_planes_1.png	R	0	0	0	140.874180678395	141.074183652876
168.64	0.2	228	6	0	15	12	4	7	0	1	0	stim005_stimuli_original_animals_fish_1.png	J	0	0	0	141.274196135928	141.474197891308
169.04	0.2	229	6	0	15	13	2	5	0	0	0	stim003_stimuli_original_animals_birds_3.png	F	0	0	0	141.674203303875	141.874205546919
169.44	0.2	230	6	0	15	14	15	8	0	0	0	stim016_stimuli_original_vehicles_planes_4.png	K	0	0	0	142.074216079549	142.27421612828
169.84	0.2	231	6	0	15	15	11	7	0	0	0	stim012_stimuli_original_vehicles_boats_4.png	J	0	0	0	142.474538249313	142.674233536236
170.24	0.2	232	6	0	15	16	14	13	0	0	0	stim015_stimuli_original_vehicles_planes_3.png	U	0	0	0	142.874233828858	143.074236315675
170.64	0.2	233	6	0	15	17	3	0	0	0	0	stim004_stimuli_original_animals_birds_4.png	A	0	0	0	143.274244897766	143.474247872247
171.04	0.2	234	6	0	15	18	0	3	0	0	0	stim001_stimuli_original_animals_birds_1.png	D	0	0	0	143.674263037159	143.87425650307
171.44	0.2	235	6	0	15	19	13	14	0	0	0	stim014_stimuli_original_vehicles_planes_2.png	V	0	0	0	144.07427069277	144.274272448267
171.84	0.2	236	6	0	15	20	7	11	0	0	0	stim008_stimuli_original_animals_fish_4.png	R	NaN	144.46685093781	0	144.474276154186	144.674282298191
172.24	0.2	237	6	0	15	21	8	15	0	0	0	stim009_stimuli_original_vehicles_boats_1.png	Y	0	0	0	144.874283809797	145.074290197575
172.64	0.2	238	6	0	15	22	5	2	0	0	0	stim006_stimuli_original_animals_fish_2.png	C	0	0	0	145.274298779666	145.47429809696
173.04	0.2	239	6	0	15	23	7	4	1	0	0	stim008_stimuli_original_animals_fish_4.png	E	0	0	0	145.674310580012	145.87431038497
173.44	0.2	240	6	0	15	24	11	12	0	0	0	stim012_stimuli_original_vehicles_boats_4.png	T	0	0	0	146.07431799185	146.274320478668
173.84	0.2	241	6	0	15	25	7	0	1	0	1	stim008_stimuli_original_animals_fish_4.png	A	0	0	0	146.474332474172	146.674340568599
174.24	0.2	242	6	0	15	26	2	8	0	0	0	stim003_stimuli_original_animals_birds_3.png	K	NaN	146.866897846805	1	146.874338666908	147.074343591812
174.64	0.2	243	6	0	15	27	6	6	0	0	0	stim007_stimuli_original_animals_fish_3.png	G	0	0	0	147.274349735817	147.474351978861
175.04	0.2	244	6	0	15	28	3	13	0	0	0	stim004_stimuli_original_animals_birds_4.png	U	0	0	0	147.674361048616	147.874830186716
175.44	0.2	245	6	0	15	29	9	0	0	1	0	stim010_stimuli_original_vehicles_boats_2.png	A	0	0	0	148.074375043274	148.27437362913
175.84	0.2	246	6	0	15	30	12	7	0	0	0	stim013_stimuli_original_vehicles_planes_1.png	J	0	0	0	148.474382211221	148.674386404804
176.24	0.2	247	6	0	15	31	14	0	0	1	0	stim015_stimuli_original_vehicles_planes_3.png	A	0	0	0	148.874395474442	149.074419660377
176.64	0.2	248	6	0	15	32	1	5	0	0	0	stim002_stimuli_original_animals_birds_2.png	F	0	0	0	149.274409225327	149.474405373097
177.04	0.2	249	6	0	15	33	15	10	0	0	0	stim016_stimuli_original_vehicles_planes_4.png	Q	0	0	0	149.674414199078	149.874407908763
177.44	0.2	250	6	0	15	34	4	9	0	0	0	stim005_stimuli_original_animals_fish_1.png	L	NaN	150.066951289773	0	150.074427949963	150.274427023483
177.84	0.2	251	6	0	15	35	10	1	0	0	0	stim011_stimuli_original_vehicles_boats_3.png	B	0	0	0	150.474434142699	150.674441505689
180.49	0.2	252	7	1	44	0	3	11	0	0	0	stim004_stimuli_original_animals_birds_4.png	R	0	0	0	153.124514453462	153.324516452732
180.89	0.2	253	7	1	44	1	15	0	0	0	0	stim016_stimuli_original_vehicles_planes_4.png	A	0	0	0	153.524543076754	153.724527521641
181.29	0.2	254	7	1	44	2	8	9	0	0	0	stim009_stimuli_original_vehicles_boats_1.png	L	0	0	0	153.924540004693	154.124540541088
181.69	0.2	255	7	1	44	3	10	1	0	0	0	stim011_stimuli_original_vehicles_boats_3.png	B	0	0	0	154.324526692741	154.524547465262
182.09	0.2	256	7	1	44	4	11	13	1	0	0	stim012_stimuli_original_vehicles_boats_4.png	U	0	0	0	154.724553853157	154.924992271233
182.49	0.2	257	7	1	44	5	2	3	0	1	0	stim003_stimuli_original_animals_birds_3.png	D	0	0	0	155.124575162074	155.324552536476
182.89	0.2	258	7	1	44	6	11	8	1	0	0	stim012_stimuli_original_vehicles_boats_4.png	K	0	0	0	155.524577941513	155.724582134979
183.29	0.2	259	7	1	44	7	12	3	0	1	1	stim013_stimuli_original_vehicles_planes_1.png	D	0	0	0	155.924571456155	156.124574186862
183.69	0.2	260	7	1	44	8	7	5	0	0	0	stim008_stimuli_original_animals_fish_4.png	F	0	0	0	156.324598372681	156.524582817685
184.09	0.2	261	7	1	44	9	1	6	0	0	0	stim002_stimuli_original_animals_birds_2.png	G	0	0	0	156.724610173027	156.924610465649
184.49	0.2	262	7	1	44	10	14	12	0	0	0	stim015_stimuli_original_vehicles_planes_3.png	T	0	0	0	157.124623923912	157.324623241322
184.89	0.2	263	7	1	44	11	11	2	0	0	0	stim012_stimuli_original_vehicles_boats_4.png	C	0	0	0	157.524630360538	157.72463040927
185.29	0.2	264	7	1	44	12	9	14	0	0	0	stim010_stimuli_original_vehicles_boats_2.png	V	0	0	0	157.924639966572	158.124642453506
185.69	0.2	265	7	1	44	13	6	4	0	0	0	stim007_stimuli_original_animals_fish_3.png	E	0	0	0	158.324628605042	158.524630360538
186.09	0.2	266	7	1	44	14	13	3	0	0	0	stim014_stimuli_original_vehicles_planes_2.png	D	0	0	0	158.724654302583	158.924666297971
186.49	0.2	267	7	1	44	15	0	7	0	0	0	stim001_stimuli_original_animals_birds_1.png	J	0	0	0	159.124664883944	159.324670296512
186.89	0.2	268	7	1	44	16	5	10	0	0	0	stim006_stimuli_original_animals_fish_2.png	Q	0	0	0	159.524678390939	159.724662348279
187.29	0.2	269	7	1	44	17	4	15	0	0	0	stim005_stimuli_original_animals_fish_1.png	Y	0	0	0	159.9246889723	160.124679024913
187.69	0.2	270	7	1	44	18	15	4	0	0	0	stim016_stimuli_original_vehicles_planes_4.png	E	0	0	0	160.324700772646	160.524701552815
188.09	0.2	271	7	1	44	19	10	5	0	0	0	stim011_stimuli_original_vehicles_boats_3.png	F	0	0	0	160.724708672147	160.924713109387
188.49	0.2	272	7	1	44	20	7	0	0	0	0	stim008_stimuli_original_animals_fish_4.png	A	0	0	0	161.124723642017	161.324721252662
188.89	0.2	273	7	1	44	21	3	13	0	0	0	stim004_stimuli_original_animals_birds_4.png	U	0	0	0	161.524732516613	161.724733296898
189.29	0.2	274	7	1	44	22	4	6	0	0	0	stim005_stimuli_original_animals_fish_1.png	G	0	0	0	161.924741635099	162.124750948627
189.69	0.2	275	7	1	44	23	14	9	0	0	0	stim015_stimuli_original_vehicles_planes_3.png	L	0	0	0	162.324773671688	162.524747632793
190.09	0.2	276	7	1	44	24	2	11	0	0	0	stim003_stimuli_original_animals_birds_3.png	R	0	0	0	162.724771087291	162.924762846553
190.49	0.2	277	7	1	44	25	12	14	0	0	0	stim013_stimuli_original_vehicles_planes_1.png	V	0	0	0	163.124770453433	163.324779279297
190.89	0.2	278	7	1	44	26	6	1	0	0	0	stim007_stimuli_original_animals_fish_3.png	B	0	0	0	163.524776889943	163.724783521611
191.291	0.2	279	7	1	44	27	5	7	0	0	0	stim006_stimuli_original_animals_fish_2.png	J	0	0	0	163.924788934179	164.124801417231
191.691	0.2	280	7	1	44	28	3	12	1	0	0	stim004_stimuli_original_animals_birds_4.png	T	0	0	0	164.324803172611	164.524800051819
192.091	0.2	281	7	1	44	29	8	11	0	1	0	stim009_stimuli_original_vehicles_boats_1.png	R	0	0	0	164.7248088778	164.924814777914
192.491	0.2	282	7	1	44	30	3	2	1	0	0	stim004_stimuli_original_animals_birds_4.png	C	0	0	0	165.124820678146	165.324821945978
192.891	0.2	283	7	1	44	31	13	11	0	1	1	stim014_stimuli_original_vehicles_planes_2.png	R	0	0	0	165.525060196524	165.724845449207
193.291	0.2	284	7	1	44	32	1	10	0	0	0	stim002_stimuli_original_animals_birds_2.png	Q	0	0	0	165.92487012269	166.12484847242
193.691	0.2	285	7	1	44	33	9	8	0	0	0	stim010_stimuli_original_vehicles_boats_2.png	K	0	0	0	166.324863393558	166.524841255625
194.091	0.2	286	7	1	44	34	0	15	0	0	0	stim001_stimuli_original_animals_birds_1.png	Y	0	0	0	166.724871292943	166.924868172267
194.491	0.2	287	7	1	44	35	11	3	0	0	0	stim012_stimuli_original_vehicles_boats_4.png	D	0	0	0	167.1248635886	167.324864124996
198.207	0.2	288	8	0	39	0	10	1	0	0	0	stim011_stimuli_original_vehicles_boats_3.png	B	0	0	0	170.841649673181	171.041642651428
198.607	0.2	289	8	0	39	1	13	10	0	0	0	stim014_stimuli_original_vehicles_planes_2.png	Q	0	0	0	171.241653671605	171.44165128225
199.007	0.2	290	8	0	39	2	15	12	0	0	0	stim016_stimuli_original_vehicles_planes_4.png	T	0	0	0	171.641662058653	171.841662351275
199.407	0.2	291	8	0	39	3	9	7	0	0	0	stim010_stimuli_original_vehicles_boats_2.png	J	0	0	0	172.041678003734	172.241673663957
199.807	0.2	292	8	0	39	4	8	11	0	0	0	stim009_stimuli_original_vehicles_boats_1.png	R	0	0	0	172.441678345087	172.641682294779
200.207	0.2	293	8	0	39	5	3	4	0	0	0	stim004_stimuli_original_animals_birds_4.png	E	0	0	0	172.841698678792	173.041716769454
200.607	0.2	294	8	0	39	6	14	8	0	0	0	stim015_stimuli_original_vehicles_planes_3.png	K	0	0	0	173.241706578294	173.441706139361
201.008	0.2	295	8	0	39	7	11	3	0	0	0	stim012_stimuli_original_vehicles_boats_4.png	D	0	0	0	173.642178446986	173.841723303543
201.407	0.2	296	8	0	39	8	12	15	0	0	0	stim013_stimuli_original_vehicles_planes_1.png	Y	0	0	0	174.041726521915	174.241726326873
201.807	0.2	297	8	0	39	9	6	2	0	0	0	stim007_stimuli_original_animals_fish_3.png	C	0	0	0	174.441734908964	174.641734470031
202.207	0.2	298	8	0	39	10	14	4	1	1	0	stim015_stimuli_original_vehicles_planes_3.png	E	0	0	0	174.841750122607	175.041753584752
202.607	0.2	299	8	0	39	11	4	0	0	0	0	stim005_stimuli_original_animals_fish_1.png	A	0	0	0	175.241753633483	175.441759533715
203.007	0.2	300	8	0	39	12	14	4	1	1	1	stim015_stimuli_original_vehicles_planes_3.png	E	0	0	0	175.641763727181	175.841773284483
203.407	0.2	301	8	0	39	13	5	6	0	0	0	stim006_stimuli_original_animals_fish_2.png	G	NaN	176.034342509345	1	176.041777721839	176.241786547704
203.807	0.2	302	8	0	39	14	7	5	0	0	0	stim008_stimuli_original_animals_fish_4.png	F	0	0	0	176.441789034638	176.641787620494
204.207	0.2	303	8	0	39	15	0	14	0	0	0	stim001_stimuli_original_animals_birds_1.png	V	0	0	0	176.841797421686	177.041828190442
204.607	0.2	304	8	0	39	16	1	9	0	0	0	stim002_stimuli_original_animals_birds_2.png	L	0	0	0	177.241805321071	177.441808783216
205.008	0.2	305	8	0	39	17	2	13	0	0	0	stim003_stimuli_original_animals_birds_3.png	U	0	0	0	177.641837845207	177.841837650165
205.407	0.2	306	8	0	39	18	13	2	0	0	0	stim014_stimuli_original_vehicles_planes_2.png	C	0	0	0	178.041831603739	178.241830433486
205.808	0.2	307	8	0	39	19	9	1	0	0	0	stim010_stimuli_original_vehicles_boats_2.png	B	0	0	0	178.441842916538	178.641841502395
206.208	0.2	308	8	0	39	20	14	0	0	0	0	stim015_stimuli_original_vehicles_planes_3.png	A	0	0	0	178.841849109274	179.042092479882
206.608	0.2	309	8	0	39	21	5	7	0	0	0	stim006_stimuli_original_animals_fish_2.png	J	0	0	0	179.241864566808	179.441864615539
207.008	0.2	310	8	0	39	22	6	5	0	0	0	stim007_stimuli_original_animals_fish_3.png	F	0	0	0	179.641870759544	179.841870808275
207.408	0.2	311	8	0	39	23	4	14	1	1	0	stim005_stimuli_original_animals_fish_1.png	V	0	0	0	180.041884997976	180.241883583949
207.808	0.2	312	8	0	39	24	0	4	0	0	0	stim001_stimuli_original_animals_birds_1.png	E	0	0	0	180.441892409814	180.64189684717
208.208	0.2	313	8	0	39	25	4	14	1	1	1	stim005_stimuli_original_animals_fish_1.png	V	0	0	0	180.841902259737	181.041904990328
208.608	0.2	314	8	0	39	26	2	6	0	0	0	stim003_stimuli_original_animals_birds_3.png	G	0	0	0	181.241917717271	181.441917766002
209.008	0.2	315	8	0	39	27	15	12	0	0	0	stim016_stimuli_original_vehicles_planes_4.png	T	0	0	0	181.641923910007	181.841929810122
209.408	0.2	316	8	0	39	28	3	11	0	0	0	stim004_stimuli_original_animals_birds_4.png	R	0	0	0	182.041937417001	182.241917229607
209.808	0.2	317	8	0	39	29	8	14	0	0	0	stim009_stimuli_original_vehicles_boats_1.png	V	0	0	0	182.44194580405	182.641948534758
210.208	0.2	318	8	0	39	30	4	3	0	0	0	stim005_stimuli_original_animals_fish_1.png	D	0	0	0	182.841957848286	183.041961066541
210.608	0.2	319	8	0	39	31	11	8	0	0	0	stim012_stimuli_original_vehicles_boats_4.png	K	0	0	0	183.241968673421	183.441969209816
211.008	0.2	320	8	0	39	32	7	9	0	0	0	stim008_stimuli_original_animals_fish_4.png	L	0	0	0	183.64197706047	183.841982960585
211.408	0.2	321	8	0	39	33	12	15	0	0	0	stim013_stimuli_original_vehicles_planes_1.png	Y	0	0	0	184.041991786566	184.241994273383
211.808	0.2	322	8	0	39	34	10	13	0	0	0	stim011_stimuli_original_vehicles_boats_3.png	U	0	0	0	184.44200529356	184.642000222346
212.208	0.2	323	8	0	39	35	1	10	0	0	0	stim002_stimuli_original_animals_birds_2.png	Q	0	0	0	184.842008804437	185.042012510356
215.691	0.2	324	9	1	6	0	15	5	0	0	0	stim016_stimuli_original_vehicles_planes_4.png	F	0	0	0	188.325443172362	188.525445415406
216.091	0.2	325	9	1	6	1	9	9	0	0	0	stim010_stimuli_original_vehicles_boats_2.png	L	0	0	0	188.725437418441	188.925455265329
216.491	0.2	326	9	1	6	2	4	4	0	0	0	stim005_stimuli_original_animals_fish_1.png	E	0	0	0	189.125447024591	189.325448779971
216.891	0.2	327	9	1	6	3	13	12	0	0	0	stim014_stimuli_original_vehicles_planes_2.png	T	0	0	0	189.525476379204	189.725479109911
217.291	0.2	328	9	1	6	4	5	10	0	0	0	stim006_stimuli_original_animals_fish_2.png	Q	0	0	0	189.925468431087	190.125469942694
217.691	0.2	329	9	1	6	5	10	13	0	0	0	stim011_stimuli_original_vehicles_boats_3.png	U	0	0	0	190.325496810488	190.525497590657
218.091	0.2	330	9	1	6	6	2	11	0	0	0	stim003_stimuli_original_animals_birds_3.png	R	0	0	0	190.725503490889	190.925512804417
218.491	0.2	331	9	1	6	7	11	1	0	1	0	stim012_stimuli_original_vehicles_boats_4.png	B	0	0	0	191.125500906492	191.325519484701
218.891	0.2	332	9	1	6	8	1	0	0	0	0	stim002_stimuli_original_animals_birds_2.png	A	0	0	0	191.525528798229	191.725532748038
219.291	0.2	333	9	1	6	9	15	1	1	1	1	stim016_stimuli_original_vehicles_planes_4.png	B	0	0	0	191.925525726285	192.125521874055
219.691	0.2	334	9	1	6	10	6	3	0	0	0	stim007_stimuli_original_animals_fish_3.png	D	0	0	0	192.325553130475	192.525552203995
220.091	0.2	335	9	1	6	11	15	8	1	0	0	stim016_stimuli_original_vehicles_planes_4.png	K	0	0	0	192.725561273634	192.925559859606
220.491	0.2	336	9	1	6	12	7	14	0	0	0	stim008_stimuli_original_animals_fish_4.png	V	0	0	0	193.125551862642	193.325571172405
220.891	0.2	337	9	1	6	13	14	7	0	0	0	stim015_stimuli_original_vehicles_planes_3.png	J	0	0	0	193.525580973481	193.725586629822
221.291	0.2	338	9	1	6	14	8	1	0	0	0	stim009_stimuli_original_vehicles_boats_1.png	B	0	0	0	193.92558936053	194.125596479746
221.691	0.2	339	9	1	6	15	0	15	0	0	0	stim001_stimuli_original_animals_birds_1.png	Y	0	0	0	194.325598722789	194.525606573443
222.091	0.2	340	9	1	6	16	3	6	0	0	0	stim004_stimuli_original_animals_birds_4.png	G	0	0	0	194.725609791814	194.925596918678
222.491	0.2	341	9	1	6	17	12	2	0	0	0	stim013_stimuli_original_vehicles_planes_1.png	C	0	0	0	195.125604281668	195.325623103767
222.891	0.2	342	9	1	6	18	2	12	0	0	0	stim003_stimuli_original_animals_birds_3.png	T	0	0	0	195.525634611608	195.725621738471
223.291	0.2	343	9	1	6	19	6	3	0	0	0	stim007_stimuli_original_animals_fish_3.png	D	0	0	0	195.925641779555	196.125629637856
223.691	0.2	344	9	1	6	20	15	0	0	0	0	stim016_stimuli_original_vehicles_planes_4.png	A	0	0	0	196.325656749425	196.525658017257
224.091	0.2	345	9	1	6	21	1	8	0	0	0	stim002_stimuli_original_animals_birds_2.png	K	0	0	0	196.725665136473	196.925670061493
224.491	0.2	346	9	1	6	22	7	14	0	0	0	stim008_stimuli_original_animals_fish_4.png	V	0	0	0	197.125674742623	197.325662357034
224.892	0.2	347	9	1	6	23	14	7	0	0	0	stim015_stimuli_original_vehicles_planes_3.png	J	0	0	0	197.526133445674	197.725699269795
225.291	0.2	348	9	1	6	24	8	15	0	1	0	stim009_stimuli_original_vehicles_boats_1.png	Y	0	0	0	197.925676888088	198.125698148273
225.691	0.2	349	9	1	6	25	3	6	0	0	0	stim004_stimuli_original_animals_birds_4.png	G	0	0	0	198.325705511379	198.525709217298
226.091	0.2	350	9	1	6	26	1	15	1	1	1	stim002_stimuli_original_animals_birds_2.png	Y	0	0	0	198.725719506037	198.925723699504
226.491	0.2	351	9	1	6	27	0	1	0	0	0	stim001_stimuli_original_animals_birds_1.png	B	0	0	0	199.125726917759	199.325736231287
226.891	0.2	352	9	1	6	28	1	11	1	0	0	stim002_stimuli_original_animals_birds_2.png	R	0	0	0	199.525720920064	199.72573949839
227.291	0.2	353	9	1	6	29	11	2	0	0	0	stim012_stimuli_original_vehicles_boats_4.png	C	0	0	0	199.925752712879	200.125751054962
227.691	0.2	354	9	1	6	30	13	10	0	0	0	stim014_stimuli_original_vehicles_planes_2.png	Q	0	0	0	200.32576305035	200.525764561957
228.091	0.2	355	9	1	6	31	10	5	0	0	0	stim011_stimuli_original_vehicles_boats_3.png	F	0	0	0	200.725768755539	200.925774168107
228.491	0.2	356	9	1	6	32	12	13	0	0	0	stim013_stimuli_original_vehicles_planes_1.png	U	0	0	0	201.125780799659	201.325780117069
228.891	0.2	357	9	1	6	33	4	4	0	0	0	stim005_stimuli_original_animals_fish_1.png	E	0	0	0	201.525807960075	201.7257989879
229.291	0.2	358	9	1	6	34	9	9	0	0	0	stim010_stimuli_original_vehicles_boats_2.png	L	0	0	0	201.925793429022	202.12579055212
229.691	0.2	359	9	1	6	35	5	15	0	0	0	stim006_stimuli_original_animals_fish_2.png	Y	0	0	0	202.325816444587	202.525819419068
233.975	0.2	360	10	0	10	0	8	12	0	0	0	stim009_stimuli_original_vehicles_boats_1.png	T	0	0	0	206.609254177194	206.809256664012
234.375	0.2	361	10	0	10	1	2	3	0	0	0	stim003_stimuli_original_animals_birds_3.png	D	0	0	0	207.009258907055	207.209264807287
234.775	0.2	362	10	0	10	2	1	2	0	0	0	stim002_stimuli_original_animals_birds_2.png	C	0	0	0	207.40927558369	207.609275388648
235.175	0.2	363	10	0	10	3	11	9	0	0	0	stim012_stimuli_original_vehicles_boats_4.png	L	0	0	0	207.809282751638	208.009283531806
235.575	0.2	364	10	0	10	4	10	0	0	0	0	stim011_stimuli_original_vehicles_boats_3.png	A	0	0	0	208.209293089109	208.409299477004
235.975	0.2	365	10	0	10	5	4	4	0	1	0	stim005_stimuli_original_animals_fish_1.png	E	0	0	0	208.609305377118	208.809314446873
236.375	0.2	366	10	0	10	6	7	8	0	0	0	stim008_stimuli_original_animals_fish_4.png	K	0	0	0	209.009315227042	209.209316251101
236.775	0.2	367	10	0	10	7	15	4	0	1	0	stim016_stimuli_original_vehicles_planes_4.png	E	0	0	0	209.4093292217	209.609323419048
237.175	0.2	368	10	0	10	8	6	1	1	0	0	stim007_stimuli_original_animals_fish_3.png	B	0	0	0	209.809335414437	210.009336194722
237.575	0.2	369	10	0	10	9	9	13	0	0	0	stim010_stimuli_original_vehicles_boats_2.png	U	0	0	0	210.209351359634	210.409351164591
237.975	0.2	370	10	0	10	10	6	5	1	0	1	stim007_stimuli_original_animals_fish_3.png	F	0	0	0	210.609356820933	210.809358576429
238.375	0.2	371	10	0	10	11	5	14	0	0	0	stim006_stimuli_original_animals_fish_2.png	V	0	0	0	211.009368133731	211.209368426236
238.775	0.2	372	10	0	10	12	3	6	0	0	0	stim004_stimuli_original_animals_birds_4.png	G	0	0	0	211.409381396952	211.609610138927
239.175	0.2	373	10	0	10	13	0	4	0	0	0	stim001_stimuli_original_animals_birds_1.png	E	0	0	0	211.809389052563	212.009395440342
239.575	0.2	374	10	0	10	14	14	7	0	0	0	stim015_stimuli_original_vehicles_planes_3.png	J	0	0	0	212.209395489073	212.409397732117
239.975	0.2	375	10	0	10	15	13	10	0	0	0	stim014_stimuli_original_vehicles_planes_2.png	Q	0	0	0	212.609409239958	212.809411483002
240.375	0.2	376	10	0	10	16	12	11	0	0	0	stim013_stimuli_original_vehicles_planes_1.png	R	0	0	0	213.009419577545	213.209429622395
240.775	0.2	377	10	0	10	17	6	15	0	0	0	stim007_stimuli_original_animals_fish_3.png	Y	0	0	0	213.409428939805	213.609424356138
241.175	0.2	378	10	0	10	18	15	6	0	0	0	stim016_stimuli_original_vehicles_planes_4.png	G	0	0	0	213.809442934464	214.00944444607
241.575	0.2	379	10	0	10	19	11	12	0	0	0	stim012_stimuli_original_vehicles_boats_4.png	T	0	0	0	214.209454247146	214.409454783541
241.975	0.2	380	10	0	10	20	10	13	0	0	0	stim011_stimuli_original_vehicles_boats_3.png	U	0	0	0	214.609460196109	214.809465608676
242.375	0.2	381	10	0	10	21	7	14	0	0	0	stim008_stimuli_original_animals_fish_4.png	V	0	0	0	215.009472727892	215.20947277674
242.775	0.2	382	10	0	10	22	4	0	0	0	0	stim005_stimuli_original_animals_fish_1.png	A	0	0	0	215.409482334042	215.609487015172
243.175	0.2	383	10	0	10	23	6	3	0	0	0	stim007_stimuli_original_animals_fish_3.png	D	0	0	0	215.809494865825	216.009495402221
243.575	0.2	384	10	0	10	24	14	5	0	0	0	stim015_stimuli_original_vehicles_planes_3.png	F	0	0	0	216.209503740538	216.40951037209
243.975	0.2	385	10	0	10	25	5	6	0	1	0	stim006_stimuli_original_animals_fish_2.png	G	0	0	0	216.609517735196	216.809516564943
244.375	0.2	386	10	0	10	26	13	9	0	0	0	stim014_stimuli_original_vehicles_planes_2.png	L	0	0	0	217.009536362253	217.209531778586
244.775	0.2	387	10	0	10	27	1	6	0	1	0	stim002_stimuli_original_animals_birds_2.png	G	0	0	0	217.40953670349	217.609537971322
245.175	0.2	388	10	0	10	28	4	15	1	0	0	stim005_stimuli_original_animals_fish_1.png	Y	0	0	0	217.80954630964	218.009547577472
245.575	0.2	389	10	0	10	29	8	7	0	0	0	stim009_stimuli_original_vehicles_boats_1.png	J	0	0	0	218.209557866212	218.409563522553
245.975	0.2	390	10	0	10	30	4	4	1	0	1	stim005_stimuli_original_animals_fish_1.png	E	0	0	0	218.609566253261	218.809568496305
246.375	0.2	391	10	0	10	31	0	10	0	0	0	stim001_stimuli_original_animals_birds_1.png	Q	0	0	0	219.009577809833	219.209580784314
246.775	0.2	392	10	0	10	32	9	11	0	0	0	stim010_stimuli_original_vehicles_boats_2.png	R	0	0	0	219.40960594546	219.609596485621
247.175	0.2	393	10	0	10	33	2	1	0	0	0	stim003_stimuli_original_animals_birds_3.png	B	0	0	0	219.809598972439	220.009605604107
247.575	0.2	394	10	0	10	34	3	2	0	0	0	stim004_stimuli_original_animals_birds_4.png	C	0	0	0	220.209608090925	220.409613015945
247.975	0.2	395	10	0	10	35	12	8	0	0	0	stim013_stimuli_original_vehicles_planes_1.png	K	0	0	0	220.609624279896	220.809639688698
250.609	0.2	396	11	1	9	0	6	14	0	0	0	stim007_stimuli_original_animals_fish_3.png	V	0	0	0	223.243025343516	223.443032950396
251.009	0.2	397	11	1	9	1	8	5	0	0	0	stim009_stimuli_original_vehicles_boats_1.png	F	0	0	0	223.643032511463	223.843038411695
251.409	0.2	398	11	1	9	2	1	7	0	0	0	stim002_stimuli_original_animals_birds_2.png	J	0	0	0	224.043049675645	224.243044116767
251.809	0.2	399	11	1	9	3	14	2	0	0	0	stim015_stimuli_original_vehicles_planes_3.png	C	0	0	0	224.443053917959	224.643063962925
252.209	0.2	400	11	1	9	4	11	3	0	0	0	stim012_stimuli_original_vehicles_boats_4.png	D	0	0	0	224.843066205969	225.043075763271
252.609	0.2	401	11	1	9	5	13	10	0	0	0	stim014_stimuli_original_vehicles_planes_2.png	Q	0	0	0	225.243074105354	225.443080493133
253.009	0.2	402	11	1	9	6	4	0	0	0	0	stim005_stimuli_original_animals_fish_1.png	A	0	0	0	225.643087612465	225.84308790497
253.409	0.2	403	11	1	9	7	0	15	0	1	0	stim001_stimuli_original_animals_birds_1.png	Y	0	0	0	226.043097462272	226.243105556816
253.809	0.2	404	11	1	9	8	11	11	1	0	0	stim012_stimuli_original_vehicles_boats_4.png	R	0	0	0	226.443110969383	226.643112968653
254.209	0.2	405	11	1	9	9	10	15	0	1	1	stim011_stimuli_original_vehicles_boats_3.png	Y	0	0	0	226.843117893557	227.043123549898
254.609	0.2	406	11	1	9	10	11	8	1	0	0	stim012_stimuli_original_vehicles_boats_4.png	K	0	0	0	227.243156025303	227.443130474072
255.009	0.2	407	11	1	9	11	9	13	0	0	0	stim010_stimuli_original_vehicles_boats_2.png	U	0	0	0	227.643144907663	227.843141055433
255.409	0.2	408	11	1	9	12	3	15	0	0	0	stim004_stimuli_original_animals_birds_4.png	Y	0	0	0	228.043148662313	228.24315675674
255.809	0.2	409	11	1	9	13	12	9	0	0	0	stim013_stimuli_original_vehicles_planes_1.png	L	0	0	0	228.443163875956	228.643167825765
256.209	0.2	410	11	1	9	14	15	4	0	0	0	stim016_stimuli_original_vehicles_planes_4.png	E	NaN	229.034936185344	1	228.843174457317	229.043171092751
256.609	0.2	411	11	1	9	15	7	12	0	0	0	stim008_stimuli_original_animals_fish_4.png	T	0	0	0	229.243619750836	229.443189719808
257.009	0.2	412	11	1	9	16	2	1	0	0	0	stim003_stimuli_original_animals_birds_3.png	B	0	0	0	229.643191962852	229.843198838294
257.409	0.2	413	11	1	9	17	5	6	0	0	0	stim006_stimuli_original_animals_fish_2.png	G	0	0	0	230.04319352319	230.243223804398
257.809	0.2	414	11	1	9	18	6	5	0	0	0	stim007_stimuli_original_animals_fish_3.png	F	0	0	0	230.443221658817	230.643224877072
258.209	0.2	415	11	1	9	19	1	2	0	0	0	stim002_stimuli_original_animals_birds_2.png	C	0	0	0	230.843220537296	231.043217904167
258.609	0.2	416	11	1	9	20	12	7	0	0	0	stim013_stimuli_original_vehicles_planes_1.png	J	0	0	0	231.243242333876	231.443245308357
259.009	0.2	417	11	1	9	21	4	15	0	0	0	stim005_stimuli_original_animals_fish_1.png	Y	0	0	0	231.643253646675	231.843257352593
259.409	0.2	418	11	1	9	22	9	12	0	0	0	stim010_stimuli_original_vehicles_boats_2.png	T	0	0	0	232.043264471809	232.243261594791
259.809	0.2	419	11	1	9	23	15	3	0	0	0	stim016_stimuli_original_vehicles_planes_4.png	D	0	0	0	232.443276759819	232.643260960933
260.209	0.2	420	11	1	9	24	13	9	0	0	0	stim014_stimuli_original_vehicles_planes_2.png	L	0	0	0	232.843285634415	233.043273005169
260.609	0.2	421	11	1	9	25	8	11	0	1	0	stim009_stimuli_original_vehicles_boats_1.png	R	0	0	0	233.243299872964	233.443284317851
261.009	0.2	422	11	1	9	26	15	10	1	0	0	stim016_stimuli_original_vehicles_planes_4.png	Q	0	0	0	233.643305578036	233.843315623002
261.409	0.2	423	11	1	9	27	11	11	0	1	1	stim012_stimuli_original_vehicles_boats_4.png	R	0	0	0	234.04331810982	234.243344977614
261.809	0.2	424	11	1	9	28	15	0	1	0	0	stim016_stimuli_original_vehicles_planes_4.png	A	0	0	0	234.443327228306	234.643776861718
262.209	0.2	425	11	1	9	29	0	4	0	0	0	stim001_stimuli_original_animals_birds_1.png	E	0	0	0	234.843344148714	235.043339321273
262.609	0.2	426	11	1	9	30	10	13	0	0	0	stim011_stimuli_original_vehicles_boats_3.png	U	0	0	0	235.243347659591	235.443368188338
263.009	0.2	427	11	1	9	31	3	11	0	0	0	stim004_stimuli_original_animals_birds_4.png	R	0	0	0	235.643358240835	235.843362434418
263.409	0.2	428	11	1	9	32	2	14	0	0	0	stim003_stimuli_original_animals_birds_3.png	V	0	0	0	236.043368090759	236.243372284342
263.809	0.2	429	11	1	9	33	7	1	0	0	0	stim008_stimuli_original_animals_fish_4.png	B	0	0	0	236.443377696909	236.643367505632
264.209	0.2	430	11	1	9	34	5	8	0	0	0	stim006_stimuli_original_animals_fish_2.png	K	0	0	0	236.843392666779	237.043396372697
264.609	0.2	431	11	1	9	35	14	6	0	0	0	stim015_stimuli_original_vehicles_planes_3.png	G	0	0	0	237.243400566163	237.443388912128
268.259	0.2	432	12	0	27	0	13	7	0	0	0	stim014_stimuli_original_vehicles_planes_2.png	J	0	0	0	240.893498675083	241.093502624892
268.659	0.2	433	12	0	27	1	6	2	0	0	0	stim007_stimuli_original_animals_fish_3.png	C	0	0	0	241.293506574584	241.493512718589
269.059	0.2	434	12	0	27	2	4	14	0	0	0	stim005_stimuli_original_animals_fish_1.png	V	0	0	0	241.693503746414	241.893522080849
269.459	0.2	435	12	0	27	3	11	10	0	0	0	stim012_stimuli_original_vehicles_boats_4.png	Q	0	0	0	242.093529443839	242.293533393531
269.859	0.2	436	12	0	27	4	10	0	0	0	0	stim011_stimuli_original_vehicles_boats_3.png	A	0	0	0	242.493541975622	242.69395820715
270.259	0.2	437	12	0	27	5	8	1	0	1	0	stim009_stimuli_original_vehicles_boats_1.png	B	0	0	0	242.893553532194	243.093556750566
270.659	0.2	438	12	0	27	6	1	3	0	0	0	stim002_stimuli_original_animals_birds_2.png	D	0	0	0	243.293563869782	243.493596345186
271.059	0.2	439	12	0	27	7	5	1	1	1	0	stim006_stimuli_original_animals_fish_2.png	B	0	0	0	243.69355689676	243.893575231312
271.459	0.2	440	12	0	27	8	0	15	0	0	0	stim001_stimuli_original_animals_birds_1.png	Y	0	0	0	244.093582838192	244.293584349798
271.859	0.2	441	12	0	27	9	5	8	1	0	1	stim006_stimuli_original_animals_fish_2.png	K	0	0	0	244.493598051835	244.69359858823
272.259	0.2	442	12	0	27	10	14	1	0	0	0	stim015_stimuli_original_vehicles_planes_3.png	B	0	0	0	244.893588884617	245.093604537193
272.659	0.2	443	12	0	27	11	7	5	0	0	0	stim008_stimuli_original_animals_fish_4.png	F	NaN	245.485394108226	1	245.293626041152	245.493620482273
273.059	0.2	444	12	0	27	12	2	12	0	0	0	stim003_stimuli_original_animals_birds_3.png	T	0	0	0	245.693607853027	245.893612046493
273.459	0.2	445	12	0	27	13	9	6	0	0	0	stim010_stimuli_original_vehicles_boats_2.png	G	0	0	0	246.093622822897	246.293641888769
273.859	0.2	446	12	0	27	14	15	4	0	0	0	stim016_stimuli_original_vehicles_planes_4.png	E	0	0	0	246.493648032774	246.693655639654
274.259	0.2	447	12	0	27	15	12	11	0	0	0	stim013_stimuli_original_vehicles_planes_1.png	R	0	0	0	246.893655444612	247.093661588617
274.659	0.2	448	12	0	27	16	5	9	0	0	0	stim006_stimuli_original_animals_fish_2.png	L	0	0	0	247.293651885004	247.493637305219
275.059	0.2	449	12	0	27	17	3	13	0	0	0	stim004_stimuli_original_animals_birds_4.png	U	0	0	0	247.693669536733	247.893687383621
275.459	0.2	450	12	0	27	18	13	3	0	0	0	stim014_stimuli_original_vehicles_planes_2.png	D	0	0	0	248.093692064751	248.29369577067
275.859	0.2	451	12	0	27	19	9	5	0	0	0	stim010_stimuli_original_vehicles_boats_2.png	F	0	0	0	248.493698013714	248.693684652913
276.259	0.2	452	12	0	27	20	11	12	0	0	0	stim012_stimuli_original_vehicles_boats_4.png	T	0	0	0	248.893708107411	249.093711325666
276.659	0.2	453	12	0	27	21	4	15	0	0	0	stim005_stimuli_original_animals_fish_1.png	Y	0	0	0	249.293723564944	249.493690211792
277.059	0.2	454	12	0	27	22	6	9	0	0	0	stim007_stimuli_original_animals_fish_3.png	L	0	0	0	249.693715860602	249.893727368326
277.459	0.2	455	12	0	27	23	12	2	0	0	0	stim013_stimuli_original_vehicles_planes_1.png	C	0	0	0	250.093741314253	250.293745263945
277.859	0.2	456	12	0	27	24	5	7	0	0	0	stim006_stimuli_original_animals_fish_2.png	J	0	0	0	250.493752627051	250.693737559603
278.259	0.2	457	12	0	27	25	1	14	0	0	0	stim002_stimuli_original_animals_birds_2.png	V	0	0	0	250.893765402609	251.093769108527
278.659	0.2	458	12	0	27	26	8	5	0	1	0	stim009_stimuli_original_vehicles_boats_1.png	F	0	0	0	251.293775740196	251.493775545154
279.059	0.2	459	12	0	27	27	15	0	0	0	0	stim016_stimuli_original_vehicles_planes_4.png	A	0	0	0	251.693781445269	251.893807094079
279.459	0.2	460	12	0	27	28	1	5	1	1	0	stim002_stimuli_original_animals_birds_2.png	F	0	0	0	252.093795439927	252.293799145846
279.859	0.2	461	12	0	27	29	3	1	0	0	0	stim004_stimuli_original_animals_birds_4.png	B	0	0	0	252.493807240389	252.693794367253
280.259	0.2	462	12	0	27	30	1	8	1	0	1	stim002_stimuli_original_animals_birds_2.png	K	0	0	0	252.893814408337	253.093815188506
280.66	0.2	463	12	0	27	31	0	10	0	0	0	stim001_stimuli_original_animals_birds_1.png	Q	0	0	0	253.294216547627	253.493836741312
281.059	0.2	464	12	0	27	32	10	11	0	0	0	stim011_stimuli_original_vehicles_boats_3.png	R	0	0	0	253.693818016676	253.893839276861
281.459	0.2	465	12	0	27	33	14	4	0	0	0	stim015_stimuli_original_vehicles_planes_3.png	E	0	0	0	254.093844689429	254.293850345886
281.859	0.2	466	12	0	27	34	2	6	0	0	0	stim003_stimuli_original_animals_birds_3.png	G	0	0	0	254.493839910836	254.693863121443
282.259	0.2	467	12	0	27	35	7	13	0	0	0	stim008_stimuli_original_animals_fish_4.png	U	0	0	0	254.89387048455	255.093854197999
285.426	0.2	468	13	1	34	0	10	9	0	0	0	stim011_stimuli_original_vehicles_boats_3.png	L	0	0	0	258.060612975969	258.260614975123
285.826	0.2	469	13	1	34	1	3	1	0	0	0	stim004_stimuli_original_animals_birds_4.png	B	0	0	0	258.460620143916	258.660620924085
286.226	0.2	470	13	1	34	2	15	12	0	0	0	stim016_stimuli_original_vehicles_planes_4.png	T	0	0	0	258.860628774739	259.060635162517
286.626	0.2	471	13	1	34	3	7	6	0	0	0	stim008_stimuli_original_animals_fish_4.png	G	0	0	0	259.26064203796	259.460650132503
287.026	0.2	472	13	1	34	4	14	10	0	0	0	stim015_stimuli_original_vehicles_planes_3.png	Q	0	0	0	259.660656276508	259.860655593802
287.426	0.2	473	13	1	34	5	8	14	0	0	0	stim009_stimuli_original_vehicles_boats_1.png	V	0	0	0	260.060678560636	260.260666662711
287.826	0.2	474	13	1	34	6	5	13	1	0	0	stim006_stimuli_original_animals_fish_2.png	U	0	0	0	260.460677439114	260.660679682158
288.227	0.2	475	13	1	34	7	12	8	0	0	0	stim013_stimuli_original_vehicles_planes_1.png	K	0	0	0	260.861139311688	261.060695139691
288.626	0.2	476	13	1	34	8	5	0	1	0	0	stim006_stimuli_original_animals_fish_2.png	A	0	0	0	261.26069591986	261.460701332428
289.026	0.2	477	13	1	34	9	1	11	0	0	0	stim002_stimuli_original_animals_birds_2.png	R	0	0	0	261.66069309169	261.860709231929
289.426	0.2	478	13	1	34	10	9	5	0	0	0	stim010_stimuli_original_vehicles_boats_2.png	F	0	0	0	262.06071488827	262.260719813174
289.826	0.2	479	13	1	34	11	0	8	0	1	0	stim001_stimuli_original_animals_birds_1.png	K	0	0	0	262.460728882928	262.660732588847
290.226	0.2	480	13	1	34	12	4	2	0	0	0	stim005_stimuli_original_animals_fish_1.png	C	0	0	0	262.860736050876	263.06073853781
290.626	0.2	481	13	1	34	13	6	8	0	1	1	stim007_stimuli_original_animals_fish_3.png	K	0	0	0	263.260756140808	263.460759115289
291.026	0.2	482	13	1	34	14	5	4	0	0	0	stim006_stimuli_original_animals_fish_2.png	E	0	0	0	263.660761602107	263.86076384515
291.426	0.2	483	13	1	34	15	11	15	0	0	0	stim012_stimuli_original_vehicles_boats_4.png	Y	0	0	0	264.060769745382	264.260774914175
291.826	0.2	484	13	1	34	16	13	3	0	0	0	stim014_stimuli_original_vehicles_planes_2.png	D	0	0	0	264.46078374004	264.660779644037
292.226	0.2	485	13	1	34	17	2	7	0	0	0	stim003_stimuli_original_animals_birds_3.png	J	0	0	0	264.860794565175	265.06079241971
292.626	0.2	486	13	1	34	18	7	2	0	0	0	stim008_stimuli_original_animals_fish_4.png	C	0	0	0	265.260795881739	265.460812265752
293.026	0.2	487	13	1	34	19	3	13	0	0	0	stim004_stimuli_original_animals_birds_4.png	U	0	0	0	265.66080938885	265.860813582316
293.426	0.2	488	13	1	34	20	15	11	0	0	0	stim016_stimuli_original_vehicles_planes_4.png	R	0	0	0	266.061063779518	266.260833672248
293.826	0.2	489	13	1	34	21	4	5	0	0	0	stim005_stimuli_original_animals_fish_1.png	F	0	0	0	266.460833477206	266.660840352648
294.226	0.2	490	13	1	34	22	8	6	1	0	0	stim009_stimuli_original_vehicles_boats_1.png	G	0	0	0	266.860843327013	267.060849471018
294.626	0.2	491	13	1	34	23	2	4	0	0	0	stim003_stimuli_original_animals_birds_3.png	E	0	0	0	267.26085073885	267.460863221902
295.026	0.2	492	13	1	34	24	8	0	1	0	0	stim009_stimuli_original_vehicles_boats_1.png	A	0	0	0	267.660864733509	267.860865269904
295.426	0.2	493	13	1	34	25	5	9	0	0	0	stim006_stimuli_original_animals_fish_2.png	L	0	0	0	268.060872876784	268.26087731414
295.826	0.2	494	13	1	34	26	11	1	0	0	0	stim012_stimuli_original_vehicles_boats_4.png	B	0	0	0	268.46088760288	268.660886920174
296.226	0.2	495	13	1	34	27	0	5	0	1	0	stim001_stimuli_original_animals_birds_1.png	F	0	0	0	268.860895746038	269.060900671058
296.626	0.2	496	13	1	34	28	8	12	0	0	0	stim009_stimuli_original_vehicles_boats_1.png	T	0	0	0	269.260903889313	269.460911252419
297.026	0.2	497	13	1	34	29	13	5	0	1	1	stim014_stimuli_original_vehicles_planes_2.png	F	0	0	0	269.660920565948	269.860920614679
297.426	0.2	498	13	1	34	30	14	8	0	0	0	stim015_stimuli_original_vehicles_planes_3.png	K	0	0	0	270.060929928208	270.260930464603
297.826	0.2	499	13	1	34	31	10	14	0	0	0	stim011_stimuli_original_vehicles_boats_3.png	V	0	0	0	270.460941728554	270.660939826863
298.226	0.2	500	13	1	34	32	6	7	0	0	0	stim007_stimuli_original_animals_fish_3.png	J	0	0	0	270.860949140391	271.06095260242
298.626	0.2	501	13	1	34	33	12	15	0	0	0	stim013_stimuli_original_vehicles_planes_1.png	Y	0	0	0	271.260958746425	271.461393263657
299.026	0.2	502	13	1	34	34	1	3	0	0	0	stim002_stimuli_original_animals_birds_2.png	D	0	0	0	271.66097249731	271.860976447002
299.426	0.2	503	13	1	34	35	9	10	0	0	0	stim010_stimuli_original_vehicles_boats_2.png	Q	NaN	272.252744806581	0	272.060979665257	272.260981664527
303.626	0.2	504	14	0	13	0	9	3	0	0	0	stim010_stimuli_original_vehicles_boats_2.png	D	0	0	0	276.261101131211	276.461103374255
304.026	0.2	505	14	0	13	1	2	1	0	0	0	stim003_stimuli_original_animals_birds_3.png	B	0	0	0	276.661110493471	276.861099083209
304.426	0.2	506	14	0	13	2	7	12	0	0	0	stim008_stimuli_original_animals_fish_4.png	T	0	0	0	277.061105470988	277.261106251157
304.826	0.2	507	14	0	13	3	1	6	0	0	0	stim002_stimuli_original_animals_birds_2.png	G	0	0	0	277.461116539896	277.661119270604
305.226	0.2	508	14	0	13	4	11	9	0	0	0	stim012_stimuli_original_vehicles_boats_4.png	L	0	0	0	277.861147357384	278.061147406232
305.626	0.2	509	14	0	13	5	4	4	0	1	0	stim005_stimuli_original_animals_fish_1.png	E	0	0	0	278.261152574909	278.461157499929
306.026	0.2	510	14	0	13	6	3	2	0	0	0	stim004_stimuli_original_animals_birds_4.png	C	0	0	0	278.661165350582	278.861172226025
306.426	0.2	511	14	0	13	7	14	4	0	1	0	stim015_stimuli_original_vehicles_planes_3.png	E	0	0	0	279.061173006194	279.261178418761
306.827	0.2	512	14	0	13	8	12	5	0	0	0	stim013_stimuli_original_vehicles_planes_1.png	F	0	0	0	279.46116676461	279.661178760114
307.227	0.2	513	14	0	13	9	7	7	1	0	0	stim008_stimuli_original_animals_fish_4.png	J	0	0	0	279.861630343948	280.061204701429
307.627	0.2	514	14	0	13	10	10	13	0	0	0	stim011_stimuli_original_vehicles_boats_3.png	U	0	0	0	280.261208894895	280.461206993205
308.027	0.2	515	14	0	13	11	7	11	1	0	1	stim008_stimuli_original_animals_fish_4.png	R	0	0	0	280.661198508693	280.861202702159
308.427	0.2	516	14	0	13	12	5	15	0	0	0	stim006_stimuli_original_animals_fish_2.png	Y	0	0	0	281.061210796703	281.261228155927
308.827	0.2	517	14	0	13	13	8	0	0	0	0	stim009_stimuli_original_vehicles_boats_1.png	A	0	0	0	281.4612208904	281.661225083866
309.227	0.2	518	14	0	13	14	0	4	0	0	0	stim001_stimuli_original_animals_birds_1.png	E	0	0	0	281.86123317841	282.061251025181
309.627	0.2	519	14	0	13	15	15	14	0	0	0	stim016_stimuli_original_vehicles_planes_4.png	V	0	0	0	282.261258875835	282.461279648473
310.027	0.2	520	14	0	13	16	6	10	0	0	0	stim007_stimuli_original_animals_fish_3.png	Q	0	0	0	282.661258729524	282.861269749817
310.427	0.2	521	14	0	13	17	13	8	0	0	0	stim014_stimuli_original_vehicles_planes_2.png	K	0	0	0	283.061279063346	283.261282281601
310.827	0.2	522	14	0	13	18	8	13	0	0	0	stim009_stimuli_original_vehicles_boats_1.png	U	0	0	0	283.461290863692	283.661294081947
311.227	0.2	523	14	0	13	19	10	6	0	0	0	stim011_stimuli_original_vehicles_boats_3.png	G	0	0	0	283.861320949742	284.061293204199
311.627	0.2	524	14	0	13	20	14	15	0	0	0	stim015_stimuli_original_vehicles_planes_3.png	Y	0	0	0	284.261293740594	284.461303541786
312.027	0.2	525	14	0	13	21	4	0	0	0	0	stim005_stimuli_original_animals_fish_1.png	A	0	0	0	284.661326264846	284.861310222186
312.427	0.2	526	14	0	13	22	0	8	0	0	0	stim001_stimuli_original_animals_birds_1.png	K	0	0	0	285.061334408005	285.261543645291
312.827	0.2	527	14	0	13	23	15	5	0	0	0	stim016_stimuli_original_vehicles_planes_4.png	F	0	0	0	285.461329873186	285.661346744746
313.227	0.2	528	14	0	13	24	11	7	0	1	0	stim012_stimuli_original_vehicles_boats_4.png	J	NaN	286.053117298638	0	285.861354107852	286.061357082333
313.627	0.2	529	14	0	13	25	13	10	0	0	0	stim014_stimuli_original_vehicles_planes_2.png	Q	0	0	0	286.261326898704	286.461352791288
314.027	0.2	530	14	0	13	26	7	7	0	1	0	stim008_stimuli_original_animals_fish_4.png	J	0	0	0	286.661375514348	286.861377513502
314.427	0.2	531	14	0	13	27	5	12	0	0	0	stim006_stimuli_original_animals_fish_2.png	T	0	0	0	287.061369272764	287.261389070074
314.827	0.2	532	14	0	13	28	4	14	1	0	0	stim005_stimuli_original_animals_fish_1.png	V	0	0	0	287.461396676954	287.661382828606
315.227	0.2	533	14	0	13	29	2	3	0	0	0	stim003_stimuli_original_animals_birds_3.png	D	0	0	0	287.861405551666	288.061394628952
315.627	0.2	534	14	0	13	30	4	4	1	0	1	stim005_stimuli_original_animals_fish_1.png	E	0	0	0	288.261417595786	288.46140472265
316.027	0.2	535	14	0	13	31	9	11	0	0	0	stim010_stimuli_original_vehicles_boats_2.png	R	0	0	0	288.661429883796	288.861418229761
316.427	0.2	536	14	0	13	32	6	1	0	0	0	stim007_stimuli_original_animals_fish_3.png	B	0	0	0	289.061442659469	289.261425641482
316.827	0.2	537	14	0	13	33	12	7	0	0	0	stim013_stimuli_original_vehicles_planes_1.png	J	0	0	0	289.461449583643	289.661455727648
317.227	0.2	538	14	0	13	34	1	2	0	0	0	stim002_stimuli_original_animals_birds_2.png	C	0	0	0	289.861461871653	290.061463627033
317.627	0.2	539	14	0	13	35	3	9	0	0	0	stim004_stimuli_original_animals_birds_4.png	L	0	0	0	290.261484887218	290.461474452168
320.277	0.2	540	15	1	2	0	0	6	0	0	0	stim001_stimuli_original_animals_birds_1.png	G	0	0	0	292.911533258972	293.111539402977
320.677	0.2	541	15	1	2	1	11	4	0	0	0	stim012_stimuli_original_vehicles_boats_4.png	E	0	0	0	293.311541889911	293.511545595713
321.077	0.2	542	15	1	2	2	8	9	0	0	0	stim009_stimuli_original_vehicles_boats_1.png	L	0	0	0	293.711552958819	293.911557639949
321.477	0.2	543	15	1	2	3	2	14	0	0	0	stim003_stimuli_original_animals_birds_3.png	V	0	0	0	294.111566709704	294.311567733646
321.877	0.2	544	15	1	2	4	7	13	1	0	0	stim008_stimuli_original_animals_fish_4.png	U	0	0	0	294.511577778612	294.711577339796
322.277	0.2	545	15	1	2	5	13	5	0	0	0	stim014_stimuli_original_vehicles_planes_2.png	F	0	0	0	294.91160298849	295.11158987158
322.677	0.2	546	15	1	2	6	7	1	1	0	0	stim008_stimuli_original_animals_fish_4.png	B	0	0	0	295.31157358503	295.511607767199
323.077	0.2	547	15	1	2	7	6	12	0	0	0	stim007_stimuli_original_animals_fish_3.png	T	0	0	0	295.711599770235	295.911682470352
323.477	0.2	548	15	1	2	8	12	3	0	0	0	stim013_stimuli_original_vehicles_planes_1.png	D	0	0	0	296.111626442987	296.31163600029
323.877	0.2	549	15	1	2	9	3	11	0	1	0	stim004_stimuli_original_animals_birds_4.png	R	0	0	0	296.51163799956	296.711639023502
324.277	0.2	550	15	1	2	10	4	10	0	0	0	stim005_stimuli_original_animals_fish_1.png	Q	0	0	0	296.91164736182	297.111647654441
324.677	0.2	551	15	1	2	11	14	11	0	1	1	stim015_stimuli_original_vehicles_planes_3.png	R	0	0	0	297.311661112704	297.511622639489
325.077	0.2	552	15	1	2	12	7	8	0	0	0	stim008_stimuli_original_animals_fish_4.png	K	0	0	0	297.711670962628	297.91165394464
325.477	0.2	553	15	1	2	13	15	7	0	0	0	stim016_stimuli_original_vehicles_planes_4.png	J	0	0	0	298.111678374349	298.311679642182
325.877	0.2	554	15	1	2	14	10	0	0	0	0	stim011_stimuli_original_vehicles_boats_3.png	A	0	0	0	298.511686273851	298.711692417855
326.277	0.2	555	15	1	2	15	5	11	0	0	0	stim006_stimuli_original_animals_fish_2.png	R	0	0	0	298.911698561744	299.111706412514
326.677	0.2	556	15	1	2	16	9	15	0	0	0	stim010_stimuli_original_vehicles_boats_2.png	Y	0	0	0	299.311697927886	299.511694075656
327.077	0.2	557	15	1	2	17	1	2	0	0	0	stim002_stimuli_original_animals_birds_2.png	C	0	0	0	299.711704364512	299.911705632228
327.477	0.2	558	15	1	2	18	2	1	0	0	0	stim003_stimuli_original_animals_birds_3.png	B	0	0	0	300.111712751561	300.311734499293
327.877	0.2	559	15	1	2	19	15	9	0	0	0	stim016_stimuli_original_vehicles_planes_4.png	L	0	0	0	300.511757466127	300.711744349217
328.277	0.2	560	15	1	2	20	11	5	0	0	0	stim012_stimuli_original_vehicles_boats_4.png	F	0	0	0	300.911758782691	301.111757368664
328.677	0.2	561	15	1	2	21	0	10	0	0	0	stim001_stimuli_original_animals_birds_1.png	Q	0	0	0	301.311747908825	301.511790380464
329.077	0.2	562	15	1	2	22	7	15	0	0	0	stim008_stimuli_original_animals_fish_4.png	Y	0	0	0	301.711778238765	301.911759758019
329.477	0.2	563	15	1	2	23	8	7	0	0	0	stim009_stimuli_original_vehicles_boats_1.png	J	0	0	0	302.111766877235	302.31178789353
329.877	0.2	564	15	1	2	24	11	14	1	0	0	stim012_stimuli_original_vehicles_boats_4.png	V	0	0	0	302.511801108019	302.711795305368
330.277	0.2	565	15	1	2	25	10	4	0	0	0	stim011_stimuli_original_vehicles_boats_3.png	E	0	0	0	302.911809738958	303.111808324815
330.677	0.2	566	15	1	2	26	11	3	1	0	0	stim012_stimuli_original_vehicles_boats_4.png	D	0	0	0	303.311817882117	303.511823294684
331.077	0.2	567	15	1	2	27	3	12	0	0	0	stim004_stimuli_original_animals_birds_4.png	T	0	0	0	303.711810909212	303.911829975084
331.477	0.2	568	15	1	2	28	12	6	0	0	0	stim013_stimuli_original_vehicles_planes_1.png	G	0	0	0	304.111821002909	304.311840556446
331.877	0.2	569	15	1	2	29	1	7	0	1	0	stim002_stimuli_original_animals_birds_2.png	J	0	0	0	304.511852795607	304.711848699604
332.277	0.2	570	15	1	2	30	5	13	0	0	0	stim006_stimuli_original_animals_fish_2.png	U	0	0	0	304.911857525585	305.111861231504
332.677	0.2	571	15	1	2	31	13	7	0	1	1	stim014_stimuli_original_vehicles_planes_2.png	J	0	0	0	305.311887855409	305.511887172819
333.077	0.2	572	15	1	2	32	14	2	0	0	0	stim015_stimuli_original_vehicles_planes_3.png	C	NaN	305.903642854304	1	305.711878444417	305.911883369321
333.477	0.2	573	15	1	2	33	9	8	0	0	0	stim010_stimuli_original_vehicles_boats_2.png	K	0	0	0	306.111891219974	306.311896388768
333.877	0.2	574	15	1	2	34	4	11	0	0	0	stim005_stimuli_original_animals_fish_1.png	R	0	0	0	306.511902532773	306.711909408215
334.277	0.2	575	15	1	2	35	6	0	0	0	0	stim007_stimuli_original_animals_fish_3.png	A	0	0	0	306.911910432158	307.111912919092
337.294	0.2	576	16	0	25	0	7	15	0	0	0	stim008_stimuli_original_animals_fish_4.png	Y	0	0	0	309.92865136324	310.128652387182
337.694	0.2	577	16	0	25	1	10	0	0	0	0	stim011_stimuli_original_vehicles_boats_3.png	A	0	0	0	310.328669014969	310.528667113278
338.094	0.2	578	16	0	25	2	6	3	0	0	0	stim007_stimuli_original_animals_fish_3.png	D	0	0	0	310.728675207822	310.928670624155
338.494	0.2	579	16	0	25	3	0	13	0	0	0	stim001_stimuli_original_animals_birds_1.png	U	0	0	0	311.128685789066	311.328681449289
338.894	0.2	580	16	0	25	4	8	5	0	0	0	stim009_stimuli_original_vehicles_boats_1.png	F	0	0	0	311.528712949483	311.728694224963
339.294	0.2	581	16	0	25	5	1	9	0	1	0	stim002_stimuli_original_animals_birds_2.png	L	0	0	0	311.928703050828	312.128705050098
339.694	0.2	582	16	0	25	6	11	14	0	0	0	stim012_stimuli_original_vehicles_boats_4.png	V	0	0	0	312.328714851174	312.528718069429
340.094	0.2	583	16	0	25	7	9	9	0	1	0	stim010_stimuli_original_vehicles_boats_2.png	L	0	0	0	312.728731527808	312.928727431805
340.494	0.2	584	16	0	25	8	3	12	0	0	0	stim004_stimuli_original_animals_birds_4.png	T	0	0	0	313.128732112935	313.328742401674
340.894	0.2	585	16	0	25	9	13	4	0	0	0	stim014_stimuli_original_vehicles_planes_2.png	E	0	0	0	313.528742206632	313.728749325848
341.294	0.2	586	16	0	25	10	0	9	1	0	0	stim001_stimuli_original_animals_birds_1.png	L	0	0	0	313.928755713627	314.128776730038
341.694	0.2	587	16	0	25	11	4	2	0	0	0	stim005_stimuli_original_animals_fish_1.png	C	0	0	0	314.328766051214	314.528770732344
342.094	0.2	588	16	0	25	12	0	1	1	0	1	stim001_stimuli_original_animals_birds_1.png	B	0	0	0	314.728777607786	314.928781801253
342.494	0.2	589	16	0	25	13	12	11	0	0	0	stim013_stimuli_original_vehicles_planes_1.png	R	0	0	0	315.128787701484	315.328791407403
342.894	0.2	590	16	0	25	14	5	10	0	0	0	stim006_stimuli_original_animals_fish_2.png	Q	0	0	0	315.529268591199	315.728807596257
343.294	0.2	591	16	0	25	15	15	7	0	0	0	stim016_stimuli_original_vehicles_planes_4.png	J	0	0	0	315.928809839301	316.128811107134
343.694	0.2	592	16	0	25	16	2	8	0	0	0	stim003_stimuli_original_animals_birds_3.png	K	0	0	0	316.32881847024	316.528821444721
344.094	0.2	593	16	0	25	17	14	6	0	0	0	stim015_stimuli_original_vehicles_planes_3.png	G	0	0	0	316.728831002023	316.92882983177
344.494	0.2	594	16	0	25	18	6	14	0	0	0	stim007_stimuli_original_animals_fish_3.png	V	0	0	0	317.128839632845	317.328840656905
344.894	0.2	595	16	0	25	19	8	2	0	0	0	stim009_stimuli_original_vehicles_boats_1.png	C	0	0	0	317.528854846605	317.72885513911
345.294	0.2	596	16	0	25	20	7	15	0	0	0	stim008_stimuli_original_animals_fish_4.png	Y	0	0	0	317.928858845029	318.128866451909
345.694	0.2	597	16	0	25	21	10	5	0	0	0	stim011_stimuli_original_vehicles_boats_3.png	F	0	0	0	318.328870889265	318.528878983692
346.094	0.2	598	16	0	25	22	11	12	0	0	0	stim012_stimuli_original_vehicles_boats_4.png	T	0	0	0	318.728886834346	318.92888639553
346.494	0.2	599	16	0	25	23	1	0	0	1	0	stim002_stimuli_original_animals_birds_2.png	A	0	0	0	319.128892783308	319.328899658751
346.894	0.2	600	16	0	25	24	2	4	0	0	0	stim003_stimuli_original_animals_birds_3.png	E	0	0	0	319.528920675162	319.728909264784
347.294	0.2	601	16	0	25	25	9	0	0	1	0	stim010_stimuli_original_vehicles_boats_2.png	A	0	0	0	319.928915652679	320.128917651833
347.694	0.2	602	16	0	25	26	4	13	0	0	0	stim005_stimuli_original_animals_fish_1.png	U	0	0	0	320.328927696799	320.528953101835
348.094	0.2	603	16	0	25	27	12	3	0	0	0	stim013_stimuli_original_vehicles_planes_1.png	D	0	0	0	320.728933401988	320.929399126791
348.494	0.2	604	16	0	25	28	9	9	1	0	0	stim010_stimuli_original_vehicles_boats_2.png	L	0	0	0	321.12894764042	321.328948420589
348.894	0.2	605	16	0	25	29	14	11	0	0	0	stim015_stimuli_original_vehicles_planes_3.png	R	0	0	0	321.528958709445	321.728959245724
349.294	0.2	606	16	0	25	30	9	1	1	0	1	stim010_stimuli_original_vehicles_boats_2.png	B	0	0	0	321.928969046916	322.128967388999
349.694	0.2	607	16	0	25	31	5	8	0	0	0	stim006_stimuli_original_animals_fish_2.png	K	0	0	0	322.328979384387	322.528977482696
350.094	0.2	608	16	0	25	32	13	0	0	0	0	stim014_stimuli_original_vehicles_planes_2.png	A	NaN	322.721530859941	1	322.728987283888	322.928991233581
350.494	0.2	609	16	0	25	33	3	6	0	0	0	stim004_stimuli_original_animals_birds_4.png	G	0	0	0	323.129002009984	323.328999376856
350.894	0.2	610	16	0	25	34	0	10	0	0	0	stim001_stimuli_original_animals_birds_1.png	Q	0	0	0	323.529009421705	323.729016784811
351.294	0.2	611	16	0	25	35	15	7	0	0	0	stim016_stimuli_original_vehicles_planes_4.png	J	0	0	0	323.929020978278	324.129021514673
354.261	0.2	612	17	1	35	0	9	3	0	0	0	stim010_stimuli_original_vehicles_boats_2.png	D	0	0	0	326.895796579076	327.095759081189
354.661	0.2	613	17	1	35	1	8	8	0	0	0	stim009_stimuli_original_vehicles_boats_1.png	K	0	0	0	327.29577692796	327.495785022504
355.061	0.2	614	17	1	35	2	11	10	0	0	0	stim012_stimuli_original_vehicles_boats_4.png	Q	0	0	0	327.695791897946	327.895794872427
355.461	0.2	615	17	1	35	3	4	2	0	0	0	stim005_stimuli_original_animals_fish_1.png	C	0	0	0	328.095799065894	328.296194573515
355.861	0.2	616	17	1	35	4	7	13	0	0	0	stim008_stimuli_original_animals_fish_4.png	U	0	0	0	328.49578746059	328.695793116931
356.261	0.2	617	17	1	35	5	14	4	0	0	0	stim015_stimuli_original_vehicles_planes_3.png	E	0	0	0	328.895821691374	329.095825397293
356.661	0.2	618	17	1	35	6	2	14	1	0	0	stim003_stimuli_original_animals_birds_3.png	V	0	0	0	329.295814962243	329.495818668162
357.061	0.2	619	17	1	35	7	13	11	0	0	0	stim014_stimuli_original_vehicles_planes_2.png	R	0	0	0	329.69584017212	329.895847535226
357.461	0.2	620	17	1	35	8	2	6	1	0	0	stim003_stimuli_original_animals_birds_3.png	G	0	0	0	330.095854410669	330.295854215627
357.861	0.2	621	17	1	35	9	0	0	0	0	0	stim001_stimuli_original_animals_birds_1.png	A	0	0	0	330.495865235804	330.695868941722
358.261	0.2	622	17	1	35	10	10	1	0	0	0	stim011_stimuli_original_vehicles_boats_3.png	B	0	0	0	330.895886300947	331.095878060209
358.661	0.2	623	17	1	35	11	5	15	0	0	0	stim006_stimuli_original_animals_fish_2.png	Y	0	0	0	331.295885910862	331.495886691031
359.061	0.2	624	17	1	35	12	3	10	0	1	0	stim004_stimuli_original_animals_birds_4.png	Q	0	0	0	331.695899174083	331.895883862861
359.461	0.2	625	17	1	35	13	12	12	0	0	0	stim013_stimuli_original_vehicles_planes_1.png	T	0	0	0	332.095888787764	332.295940524084
359.861	0.2	626	17	1	35	14	15	10	0	1	1	stim016_stimuli_original_vehicles_planes_4.png	Q	0	0	0	332.495917654829	332.695902099716
360.261	0.2	627	17	1	35	15	1	5	0	0	0	stim002_stimuli_original_animals_birds_2.png	F	0	0	0	332.895927017089	333.095929016359
360.661	0.2	628	17	1	35	16	6	7	0	0	0	stim007_stimuli_original_animals_fish_3.png	J	0	0	0	333.295941011747	333.495923262439
361.061	0.2	629	17	1	35	17	2	9	0	0	0	stim003_stimuli_original_animals_birds_3.png	L	0	0	0	333.695952324546	333.895958224661
361.461	0.2	630	17	1	35	18	9	2	0	0	0	stim010_stimuli_original_vehicles_boats_2.png	C	0	0	0	334.095947545837	334.295962466975
361.861	0.2	631	17	1	35	19	7	6	0	0	0	stim008_stimuli_original_animals_fish_4.png	G	0	0	0	334.495978607214	334.695957200718
362.261	0.2	632	17	1	35	20	5	1	0	0	0	stim006_stimuli_original_animals_fish_2.png	B	0	0	0	334.895977973239	335.095965587767
362.661	0.2	633	17	1	35	21	10	15	1	0	0	stim011_stimuli_original_vehicles_boats_3.png	Y	0	0	0	335.295989529812	335.495995186269
363.061	0.2	634	17	1	35	22	12	12	0	0	0	stim013_stimuli_original_vehicles_planes_1.png	T	0	0	0	335.696004743571	335.896006742725
363.461	0.2	635	17	1	35	23	10	3	1	0	0	stim011_stimuli_original_vehicles_boats_3.png	D	0	0	0	336.096017763019	336.295997575507
363.861	0.2	636	17	1	35	24	15	5	0	0	0	stim016_stimuli_original_vehicles_planes_4.png	F	0	0	0	336.496024687192	336.696028393111
364.261	0.2	637	17	1	35	25	1	10	0	0	0	stim002_stimuli_original_animals_birds_2.png	Q	0	0	0	336.896034293226	337.096033610636
364.661	0.2	638	17	1	35	26	0	0	0	0	0	stim001_stimuli_original_animals_birds_1.png	A	0	0	0	337.296043899376	337.496063452796
365.061	0.2	639	17	1	35	27	6	2	0	1	0	stim007_stimuli_original_animals_fish_3.png	C	0	0	0	337.69606008823	337.896055992227
365.461	0.2	640	17	1	35	28	11	13	0	0	0	stim012_stimuli_original_vehicles_boats_4.png	U	0	0	0	338.096069450607	338.296068036463
365.861	0.2	641	17	1	35	29	14	2	0	1	1	stim015_stimuli_original_vehicles_planes_3.png	C	0	0	0	338.496058820514	338.696078617824
366.262	0.2	642	17	1	35	30	4	14	0	0	0	stim005_stimuli_original_animals_fish_1.png	V	0	0	0	338.896485096891	339.096095538232
366.661	0.2	643	17	1	35	31	13	7	0	0	0	stim014_stimuli_original_vehicles_planes_2.png	J	0	0	0	339.296105826972	339.496082226164
367.061	0.2	644	17	1	35	32	2	4	0	0	0	stim003_stimuli_original_animals_birds_3.png	E	0	0	0	339.696107874974	339.896111580892
367.461	0.2	645	17	1	35	33	10	11	0	0	0	stim011_stimuli_original_vehicles_boats_3.png	R	0	0	0	340.09611699346	340.296106802183
367.861	0.2	646	17	1	35	34	8	8	0	0	0	stim009_stimuli_original_vehicles_boats_1.png	K	0	0	0	340.496127574705	340.696133718709
368.261	0.2	647	17	1	35	35	3	9	0	0	0	stim004_stimuli_original_animals_birds_4.png	L	0	0	0	340.896138887503	341.09612625814
370.811	0.2	648	18	0	16	0	15	1	0	0	0	stim016_stimuli_original_vehicles_planes_4.png	B	0	0	0	343.446211737697	343.646216175053
371.211	0.2	649	18	0	16	1	2	15	0	0	0	stim003_stimuli_original_animals_birds_3.png	Y	0	0	0	343.846222075284	344.046224074555
371.611	0.2	650	18	0	16	2	13	11	0	0	0	stim014_stimuli_original_vehicles_planes_2.png	R	0	0	0	344.246232656646	344.446220271057
372.011	0.2	651	18	0	16	3	9	3	0	0	0	stim010_stimuli_original_vehicles_boats_2.png	D	0	0	0	344.646246895078	344.84624816291
372.411	0.2	652	18	0	16	4	11	13	0	0	0	stim012_stimuli_original_vehicles_boats_4.png	U	0	0	0	345.046254794463	345.246242896654
372.811	0.2	653	18	0	16	5	6	4	0	0	0	stim007_stimuli_original_animals_fish_3.png	E	0	0	0	345.446265863487	345.646266155993
373.212	0.2	654	18	0	16	6	7	8	0	0	0	stim008_stimuli_original_animals_fish_4.png	K	0	0	0	345.846724078874	346.046266497346
373.611	0.2	655	18	0	16	7	8	14	0	0	0	stim009_stimuli_original_vehicles_boats_1.png	V	0	0	0	346.246285807109	346.446288293926
374.011	0.2	656	18	0	16	8	6	6	1	1	0	stim007_stimuli_original_animals_fish_3.png	G	0	0	0	346.646297363681	346.846302044811
374.411	0.2	657	18	0	16	9	0	0	0	0	0	stim001_stimuli_original_animals_birds_1.png	A	0	0	0	347.046305506839	347.246312382282
374.811	0.2	658	18	0	16	10	6	6	1	1	1	stim007_stimuli_original_animals_fish_3.png	G	0	0	0	347.446317551075	347.646306384588
375.211	0.2	659	18	0	16	11	5	12	0	0	0	stim006_stimuli_original_animals_fish_2.png	T	0	0	0	347.846329351421	348.046331106802
375.611	0.2	660	18	0	16	12	1	10	0	0	0	stim002_stimuli_original_animals_birds_2.png	Q	0	0	0	348.246338226134	348.446358267218
376.011	0.2	661	18	0	16	13	14	9	0	0	0	stim015_stimuli_original_vehicles_planes_3.png	L	0	0	0	348.646351245465	348.846355195274
376.411	0.2	662	18	0	16	14	4	5	0	0	0	stim005_stimuli_original_animals_fish_1.png	F	0	0	0	349.046362802037	349.246345540392
376.811	0.2	663	18	0	16	15	3	2	0	0	0	stim004_stimuli_original_animals_birds_4.png	C	0	0	0	349.44637167675	349.646374895005
377.211	0.2	664	18	0	16	16	10	7	0	0	0	stim011_stimuli_original_vehicles_boats_3.png	J	0	0	0	349.846399568487	350.046386451577
377.611	0.2	665	18	0	16	17	12	6	0	0	0	stim013_stimuli_original_vehicles_planes_1.png	G	0	0	0	350.246400397504	350.44637850346
378.011	0.2	666	18	0	16	18	6	12	0	0	0	stim007_stimuli_original_animals_fish_3.png	T	0	0	0	350.646385622676	350.846405419987
378.412	0.2	667	18	0	16	19	7	10	0	0	0	stim008_stimuli_original_animals_fish_4.png	Q	0	0	0	351.04641327064	351.246655178373
378.812	0.2	668	18	0	16	20	2	3	0	0	0	stim003_stimuli_original_animals_birds_3.png	D	0	0	0	351.446412392892	351.646408053115
379.212	0.2	669	18	0	16	21	5	4	0	0	0	stim006_stimuli_original_animals_fish_2.png	E	0	0	0	351.846434677136	352.046419853461
379.612	0.2	670	18	0	16	22	9	14	0	0	0	stim010_stimuli_original_vehicles_boats_2.png	V	0	0	0	352.246449890779	352.446447257651
380.012	0.2	671	18	0	16	23	10	1	0	0	0	stim011_stimuli_original_vehicles_boats_3.png	B	0	0	0	352.646451695007	352.846463690395
380.412	0.2	672	18	0	16	24	12	5	0	0	0	stim013_stimuli_original_vehicles_planes_1.png	F	0	0	0	353.046447160188	353.246457205038
380.812	0.2	673	18	0	16	25	6	6	1	1	0	stim007_stimuli_original_animals_fish_3.png	G	0	0	0	353.446476271027	353.646481439704
381.212	0.2	674	18	0	16	26	0	0	0	0	0	stim001_stimuli_original_animals_birds_1.png	A	0	0	0	353.846487339935	354.04649080208
381.612	0.2	675	18	0	16	27	6	6	1	1	1	stim007_stimuli_original_animals_fish_3.png	G	0	0	0	354.246502553695	354.446499189129
382.012	0.2	676	18	0	16	28	14	8	0	0	0	stim015_stimuli_original_vehicles_planes_3.png	K	0	0	0	354.646506795892	354.846513183787
382.412	0.2	677	18	0	16	29	8	7	0	0	0	stim009_stimuli_original_vehicles_boats_1.png	J	NaN	355.238283006125	1	355.046517864917	355.246504016453
382.812	0.2	678	18	0	16	30	4	6	0	0	0	stim005_stimuli_original_animals_fish_1.png	G	0	0	0	355.446512598544	355.646536296816
383.212	0.2	679	18	0	16	31	13	11	0	0	0	stim014_stimuli_original_vehicles_planes_2.png	R	0	0	0	355.846544635133	356.046544196317
383.612	0.2	680	18	0	16	32	3	9	0	0	0	stim004_stimuli_original_animals_birds_4.png	L	0	0	0	356.246533517493	356.446554046241
384.012	0.2	681	18	0	16	33	11	13	0	0	0	stim012_stimuli_original_vehicles_boats_4.png	U	0	0	0	356.646565553965	356.846565846587
384.412	0.2	682	18	0	16	34	15	2	0	0	0	stim016_stimuli_original_vehicles_planes_4.png	C	0	0	0	357.046574428678	357.246575208846
384.812	0.2	683	18	0	16	35	1	15	0	0	0	stim002_stimuli_original_animals_birds_2.png	Y	0	0	0	357.446586472797	357.64658505877
387.462	0.2	684	19	1	10	0	8	12	0	0	0	stim009_stimuli_original_vehicles_boats_1.png	T	0	0	0	360.096650204621	360.296653179103
387.862	0.2	685	19	1	10	1	2	3	0	0	0	stim003_stimuli_original_animals_birds_3.png	D	0	0	0	360.496655422146	360.696655714768
388.262	0.2	686	19	1	10	2	1	2	0	0	0	stim002_stimuli_original_animals_birds_2.png	C	0	0	0	360.896684532985	361.096670440864
388.662	0.2	687	19	1	10	3	11	9	0	0	0	stim012_stimuli_original_vehicles_boats_4.png	L	0	0	0	361.296676340979	361.496691018343
389.062	0.2	688	19	1	10	4	10	0	0	0	0	stim011_stimuli_original_vehicles_boats_3.png	A	0	0	0	361.696684971917	361.896689653047
389.462	0.2	689	19	1	10	5	4	4	0	1	0	stim005_stimuli_original_animals_fish_1.png	E	0	0	0	362.096695309388	362.296719982871
389.862	0.2	690	19	1	10	6	7	8	0	0	0	stim008_stimuli_original_animals_fish_4.png	K	0	0	0	362.49670003925	362.69670764613
390.262	0.2	691	19	1	10	7	15	4	0	1	1	stim016_stimuli_original_vehicles_planes_4.png	E	0	0	0	362.896717691096	363.096719934139
390.662	0.2	692	19	1	10	8	6	1	1	0	0	stim007_stimuli_original_animals_fish_3.png	B	0	0	0	363.296728028567	363.496735391673
391.062	0.2	693	19	1	10	9	9	13	0	0	0	stim010_stimuli_original_vehicles_boats_2.png	U	0	0	0	363.696744705201	363.896745973034
391.462	0.2	694	19	1	10	10	6	5	1	0	0	stim007_stimuli_original_animals_fish_3.png	F	0	0	0	364.0967501665	364.296753628645
391.862	0.2	695	19	1	10	11	5	14	0	0	0	stim006_stimuli_original_animals_fish_2.png	V	0	0	0	364.496768062119	364.696760796593
392.262	0.2	696	19	1	10	12	3	6	0	0	0	stim004_stimuli_original_animals_birds_4.png	G	0	0	0	364.896770110121	365.096772840829
392.662	0.2	697	19	1	10	13	0	4	0	0	0	stim001_stimuli_original_animals_birds_1.png	E	0	0	0	365.296781179029	365.496783909737
393.062	0.2	698	19	1	10	14	14	7	0	0	0	stim015_stimuli_original_vehicles_planes_3.png	J	0	0	0	365.696793954703	365.896794247208
393.462	0.2	699	19	1	10	15	13	10	0	0	0	stim014_stimuli_original_vehicles_planes_2.png	Q	0	0	0	366.096805998823	366.296803365694
393.862	0.2	700	19	1	10	16	12	11	0	0	0	stim013_stimuli_original_vehicles_planes_1.png	R	0	0	0	366.496811947785	366.69681540993
394.262	0.2	701	19	1	10	17	6	15	0	0	0	stim007_stimuli_original_animals_fish_3.png	Y	0	0	0	366.896822529146	367.096825503628
394.662	0.2	702	19	1	10	18	15	6	0	0	0	stim016_stimuli_original_vehicles_planes_4.png	G	0	0	0	367.296836036141	367.496856808779
395.062	0.2	703	19	1	10	19	11	12	0	0	0	stim012_stimuli_original_vehicles_boats_4.png	T	0	0	0	367.696845886065	367.896845691022
395.462	0.2	704	19	1	10	20	10	13	0	0	0	stim011_stimuli_original_vehicles_boats_3.png	U	0	0	0	368.096856223652	368.296861392329
395.862	0.2	705	19	1	10	21	7	14	0	0	0	stim008_stimuli_original_animals_fish_4.png	V	0	0	0	368.496865098248	368.696869291831
396.262	0.2	706	19	1	10	22	4	0	0	0	0	stim005_stimuli_original_animals_fish_1.png	A	0	0	0	368.897315268056	369.096881823614
396.662	0.2	707	19	1	10	23	6	3	0	0	0	stim007_stimuli_original_animals_fish_3.png	D	0	0	0	369.296890405705	369.496895574499
397.062	0.2	708	19	1	10	24	14	5	0	0	0	stim015_stimuli_original_vehicles_planes_3.png	F	0	0	0	369.696897573653	369.896899816697
397.462	0.2	709	19	1	10	25	5	6	0	1	0	stim006_stimuli_original_animals_fish_2.png	G	0	0	0	370.096910836874	370.296916249441
397.862	0.2	710	19	1	10	26	13	9	0	0	0	stim014_stimuli_original_vehicles_planes_2.png	L	0	0	0	370.49692019925	370.696923905052
398.262	0.2	711	19	1	10	27	1	6	0	1	1	stim002_stimuli_original_animals_birds_2.png	G	0	0	0	370.896930780495	371.096932292101
398.662	0.2	712	19	1	10	28	4	15	1	0	0	stim005_stimuli_original_animals_fish_1.png	Y	NaN	371.488704552641	1	371.296941118082	371.496945311548
399.062	0.2	713	19	1	10	29	8	7	0	0	0	stim009_stimuli_original_vehicles_boats_1.png	J	0	0	0	371.696954381303	371.896952479612
399.462	0.2	714	19	1	10	30	4	4	1	0	0	stim005_stimuli_original_animals_fish_1.png	E	0	0	0	372.096962768352	372.296965011396
399.862	0.2	715	19	1	10	31	0	10	0	0	0	stim001_stimuli_original_animals_birds_1.png	Q	0	0	0	372.496974081034	372.696985832648
400.262	0.2	716	19	1	10	32	9	11	0	0	0	stim010_stimuli_original_vehicles_boats_2.png	R	0	0	0	372.896991245332	373.096987636876
400.662	0.2	717	19	1	10	33	2	1	0	0	0	stim003_stimuli_original_animals_birds_3.png	B	0	0	0	373.296994512319	373.496999193449
401.062	0.2	718	19	1	10	34	3	2	0	0	0	stim004_stimuli_original_animals_birds_4.png	C	0	0	0	373.697010213626	373.897007336724
401.462	0.2	719	19	1	10	35	12	8	0	0	0	stim013_stimuli_original_vehicles_planes_1.png	K	0	0	0	374.097012993065	374.297288058908
406.429	0.2	720	20	0	37	0	8	4	0	0	0	stim009_stimuli_original_vehicles_boats_1.png	E	0	0	0	379.063816388021	379.26381473022
406.829	0.2	721	20	0	37	1	10	7	0	0	0	stim011_stimuli_original_vehicles_boats_3.png	J	0	0	0	379.463829407468	379.663837258122
407.229	0.2	722	20	0	37	2	3	9	0	0	0	stim004_stimuli_original_animals_birds_4.png	L	0	0	0	379.863837794517	380.063835649053
407.629	0.2	723	20	0	37	3	4	15	0	0	0	stim005_stimuli_original_animals_fish_1.png	Y	0	0	0	380.263850326301	380.463855251321
408.029	0.2	724	20	0	37	4	12	0	0	0	0	stim013_stimuli_original_vehicles_planes_1.png	A	0	0	0	380.663863589638	380.863864125917
408.429	0.2	725	20	0	37	5	9	13	0	1	0	stim010_stimuli_original_vehicles_boats_2.png	U	0	0	0	381.063869782374	381.26385593391
408.829	0.2	726	20	0	37	6	6	11	0	0	0	stim007_stimuli_original_animals_fish_3.png	R	0	0	0	381.46388158272	381.663868709584
409.229	0.2	727	20	0	37	7	5	13	0	1	0	stim006_stimuli_original_animals_fish_2.png	U	0	0	0	381.863891432644	382.06389294425
409.629	0.2	728	20	0	37	8	14	12	0	0	0	stim015_stimuli_original_vehicles_planes_3.png	T	0	0	0	382.263902989216	382.463909864658
410.029	0.2	729	20	0	37	9	15	6	0	0	0	stim016_stimuli_original_vehicles_planes_4.png	G	0	0	0	382.663913814351	382.863900453551
410.429	0.2	730	20	0	37	10	1	13	1	0	0	stim002_stimuli_original_animals_birds_2.png	U	0	0	0	383.063922688947	383.263924444444
410.829	0.2	731	20	0	37	11	13	14	0	0	0	stim014_stimuli_original_vehicles_planes_2.png	V	0	0	0	383.463936196058	383.664346332313
411.229	0.2	732	20	0	37	12	1	8	1	0	1	stim002_stimuli_original_animals_birds_2.png	K	0	0	0	383.8639297107	384.063947313698
411.629	0.2	733	20	0	37	13	2	1	0	0	0	stim003_stimuli_original_animals_birds_3.png	B	0	0	0	384.263951507281	384.463943022653
412.029	0.2	734	20	0	37	14	7	5	0	0	0	stim008_stimuli_original_animals_fish_4.png	F	NaN	384.855726986076	1	384.6639635514	384.86395043449
412.429	0.2	735	20	0	37	15	11	2	0	0	0	stim012_stimuli_original_vehicles_boats_4.png	C	0	0	0	385.063977789949	385.263979789102
412.829	0.2	736	20	0	37	16	0	3	0	0	0	stim001_stimuli_original_animals_birds_1.png	D	0	0	0	385.463986420771	385.663991345675
413.229	0.2	737	20	0	37	17	1	10	0	0	0	stim002_stimuli_original_animals_birds_2.png	Q	0	0	0	385.863981154514	386.063998026075
413.629	0.2	738	20	0	37	18	10	1	0	0	0	stim011_stimuli_original_vehicles_boats_3.png	B	0	0	0	386.26402513776	386.464013483608
414.029	0.2	739	20	0	37	19	3	0	0	0	0	stim004_stimuli_original_animals_birds_4.png	A	NaN	386.656584171345	0	386.66402035905	386.864025527844
414.429	0.2	740	20	0	37	20	2	11	0	0	0	stim003_stimuli_original_animals_birds_3.png	R	0	0	0	387.064031427959	387.264014653862
414.829	0.2	741	20	0	37	21	5	7	0	0	0	stim006_stimuli_original_animals_fish_2.png	J	0	0	0	387.464040546445	387.664049372426
415.229	0.2	742	20	0	37	22	1	2	0	0	0	stim002_stimuli_original_animals_birds_2.png	C	0	0	0	387.864033817314	388.064037767006
415.629	0.2	743	20	0	37	23	8	1	0	1	0	stim009_stimuli_original_vehicles_boats_1.png	B	0	0	0	388.264047080535	388.464064927422
416.029	0.2	744	20	0	37	24	14	13	0	0	0	stim015_stimuli_original_vehicles_planes_3.png	U	NaN	388.65661196562	0	388.664073509513	388.864071607823
416.429	0.2	745	20	0	37	25	13	1	0	1	0	stim014_stimuli_original_vehicles_planes_2.png	B	0	0	0	389.064085309859	389.264088040567
416.829	0.2	746	20	0	37	26	6	15	0	0	0	stim007_stimuli_original_animals_fish_3.png	Y	0	0	0	389.464095159783	389.664095452405
417.229	0.2	747	20	0	37	27	12	14	0	0	0	stim013_stimuli_original_vehicles_planes_1.png	V	0	0	0	389.864103546832	390.064088479383
417.629	0.2	748	20	0	37	28	13	5	1	0	0	stim014_stimuli_original_vehicles_planes_2.png	F	0	0	0	390.264095842489	390.464117102674
418.029	0.2	749	20	0	37	29	11	6	0	0	0	stim012_stimuli_original_vehicles_boats_4.png	G	0	0	0	390.664123734226	390.864127440145
418.429	0.2	750	20	0	37	30	13	9	1	0	1	stim014_stimuli_original_vehicles_planes_2.png	L	0	0	0	391.064118955634	391.264121930115
418.829	0.2	751	20	0	37	31	0	12	0	0	0	stim001_stimuli_original_animals_birds_1.png	T	0	0	0	391.464148310246	391.664148846641
419.229	0.2	752	20	0	37	32	15	4	0	0	0	stim016_stimuli_original_vehicles_planes_4.png	E	0	0	0	391.864155478193	392.064162109862
419.629	0.2	753	20	0	37	33	9	3	0	0	0	stim010_stimuli_original_vehicles_boats_2.png	D	0	0	0	392.264168253867	392.464156599715
420.029	0.2	754	20	0	37	34	7	10	0	0	0	stim008_stimuli_original_animals_fish_4.png	Q	0	0	0	392.664178591338	392.864182784921
420.429	0.2	755	20	0	37	35	4	8	0	0	0	stim005_stimuli_original_animals_fish_1.png	K	0	0	0	393.064174056519	393.264173373813
423.463	0.2	756	21	1	21	0	4	9	0	0	0	stim005_stimuli_original_animals_fish_1.png	L	0	0	0	396.097600330017	396.297599403537
423.863	0.2	757	21	1	21	1	12	6	0	0	0	stim013_stimuli_original_vehicles_planes_1.png	G	0	0	0	396.4976128618	396.697617299156
424.263	0.2	758	21	1	21	2	8	2	0	0	0	stim009_stimuli_original_vehicles_boats_1.png	C	0	0	0	396.897623686935	397.097597160493
424.663	0.2	759	21	1	21	3	15	13	0	0	0	stim016_stimuli_original_vehicles_planes_4.png	U	0	0	0	397.297626710148	397.497631635168
425.063	0.2	760	21	1	21	4	1	11	0	0	0	stim002_stimuli_original_animals_birds_2.png	R	0	0	0	397.697642655345	397.897644410725
425.463	0.2	761	21	1	21	5	9	14	0	0	0	stim010_stimuli_original_vehicles_boats_2.png	V	0	0	0	398.097649091855	398.297650359687
425.863	0.2	762	21	1	21	6	6	10	0	0	0	stim007_stimuli_original_animals_fish_3.png	Q	0	0	0	398.497659673216	398.697664598119
426.263	0.2	763	21	1	21	7	5	5	0	0	0	stim006_stimuli_original_animals_fish_2.png	F	0	0	0	398.897690003156	399.097676154692
426.663	0.2	764	21	1	21	8	9	4	1	0	0	stim010_stimuli_original_vehicles_boats_2.png	E	0	0	0	399.297681323485	399.497686248505
427.063	0.2	765	21	1	21	9	0	3	0	0	0	stim001_stimuli_original_animals_birds_1.png	D	0	0	0	399.697691904847	399.897697561188
427.463	0.2	766	21	1	21	10	9	7	1	0	0	stim010_stimuli_original_vehicles_boats_2.png	J	0	0	0	400.097704192856	400.297731060651
427.863	0.2	767	21	1	21	11	11	8	0	0	0	stim012_stimuli_original_vehicles_boats_4.png	K	0	0	0	400.497712823679	400.697717017145
428.263	0.2	768	21	1	21	12	3	10	0	1	0	stim004_stimuli_original_animals_birds_4.png	Q	0	0	0	400.897714140243	401.097729792818
428.663	0.2	769	21	1	21	13	13	15	0	0	0	stim014_stimuli_original_vehicles_planes_2.png	Y	0	0	0	401.297736912034	401.49773744843
429.063	0.2	770	21	1	21	14	14	10	0	1	1	stim015_stimuli_original_vehicles_planes_3.png	Q	0	0	0	401.697993497131	401.897753881174
429.463	0.2	771	21	1	21	15	2	0	0	0	0	stim003_stimuli_original_animals_birds_3.png	A	0	0	0	402.097759537515	402.297760561574
429.863	0.2	772	21	1	21	16	10	1	0	0	0	stim011_stimuli_original_vehicles_boats_3.png	B	NaN	402.490301260725	1	402.497769631329	402.697768704849
430.263	0.2	773	21	1	21	17	7	12	0	0	0	stim008_stimuli_original_animals_fish_4.png	T	0	0	0	402.897780212574	403.097777823219
430.663	0.2	774	21	1	21	18	12	7	0	0	0	stim013_stimuli_original_vehicles_planes_1.png	J	0	0	0	403.297787624411	403.497789867455
431.063	0.2	775	21	1	21	19	1	10	0	0	0	stim002_stimuli_original_animals_birds_2.png	Q	0	0	0	403.69779893721	403.897801667801
431.463	0.2	776	21	1	21	20	0	2	0	0	0	stim001_stimuli_original_animals_birds_1.png	C	0	0	0	404.097814394743	404.297812492936
431.863	0.2	777	21	1	21	21	10	14	1	0	0	stim011_stimuli_original_vehicles_boats_3.png	V	0	0	0	404.497822294128	404.697820636211
432.263	0.2	778	21	1	21	22	15	13	0	0	0	stim016_stimuli_original_vehicles_planes_4.png	U	0	0	0	404.897852136404	405.097836337518
432.663	0.2	779	21	1	21	23	10	3	1	0	0	stim011_stimuli_original_vehicles_boats_3.png	D	0	0	0	405.297840774874	405.497840579832
433.063	0.2	780	21	1	21	24	8	11	0	0	0	stim009_stimuli_original_vehicles_boats_1.png	R	0	0	0	405.697853306658	405.897856037365
433.463	0.2	781	21	1	21	25	7	9	0	1	0	stim008_stimuli_original_animals_fish_4.png	L	0	0	0	406.09786218137	406.297869300586
433.863	0.2	782	21	1	21	26	3	0	0	0	0	stim004_stimuli_original_animals_birds_4.png	A	0	0	0	406.497870812193	406.697879881947
434.263	0.2	783	21	1	21	27	4	9	0	1	1	stim005_stimuli_original_animals_fish_1.png	L	0	0	0	406.897886025952	407.098306889762
434.663	0.2	784	21	1	21	28	5	5	0	0	0	stim006_stimuli_original_animals_fish_2.png	F	0	0	0	407.297897094861	407.497895436944
435.063	0.2	785	21	1	21	29	10	6	0	0	0	stim011_stimuli_original_vehicles_boats_3.png	G	0	0	0	407.697901824722	407.897911625914
435.463	0.2	786	21	1	21	30	14	9	0	0	0	stim015_stimuli_original_vehicles_planes_3.png	L	0	0	0	408.097938249935	408.297919281526
435.863	0.2	787	21	1	21	31	11	1	0	0	0	stim012_stimuli_original_vehicles_boats_4.png	B	NaN	408.689722993411	1	408.497928595054	408.697928643785
436.263	0.2	788	21	1	21	32	13	15	0	0	0	stim014_stimuli_original_vehicles_planes_2.png	Y	0	0	0	408.897939663962	409.097946051741
436.663	0.2	789	21	1	21	33	2	8	0	0	0	stim003_stimuli_original_animals_birds_3.png	K	0	0	0	409.297924889135	409.497950537829
437.063	0.2	790	21	1	21	34	6	12	0	0	0	stim007_stimuli_original_animals_fish_3.png	T	0	0	0	409.697959607583	409.897964532487
437.463	0.2	791	21	1	21	35	9	4	0	0	0	stim010_stimuli_original_vehicles_boats_2.png	E	0	0	0	410.097969945055	410.297982428106
440.813	0.2	792	22	0	2	0	0	6	0	0	0	stim001_stimuli_original_animals_birds_1.png	G	0	0	0	413.448076392291	413.648062543944
441.213	0.2	793	22	0	2	1	11	4	0	0	0	stim012_stimuli_original_vehicles_boats_4.png	E	0	0	0	413.848074539332	414.048072881415
441.613	0.2	794	22	0	2	2	8	9	0	0	0	stim009_stimuli_original_vehicles_boats_1.png	L	0	0	0	414.248082438833	414.448082731338
442.013	0.2	795	22	0	2	3	2	14	0	0	0	stim003_stimuli_original_animals_birds_3.png	V	0	0	0	414.648087900132	414.848534607794
442.413	0.2	796	22	0	2	4	7	13	1	0	0	stim008_stimuli_original_animals_fish_4.png	U	0	0	0	415.048127982416	415.248105844483
442.813	0.2	797	22	0	2	5	13	5	0	0	0	stim014_stimuli_original_vehicles_planes_2.png	F	0	0	0	415.448108818964	415.648110574344
443.213	0.2	798	22	0	2	6	7	1	1	0	1	stim008_stimuli_original_animals_fish_4.png	B	0	0	0	415.848123788834	416.048126519541
443.613	0.2	799	22	0	2	7	6	12	0	0	0	stim007_stimuli_original_animals_fish_3.png	T	NaN	416.448318251292	1	416.248135101632	416.448141733184
444.013	0.2	800	22	0	2	8	12	3	0	0	0	stim013_stimuli_original_vehicles_planes_1.png	D	0	0	0	416.648141782032	416.848146463162
444.413	0.2	801	22	0	2	9	3	11	0	1	0	stim004_stimuli_original_animals_birds_4.png	R	0	0	0	417.048153094715	417.248156313086
444.813	0.2	802	22	0	2	10	4	10	0	0	0	stim005_stimuli_original_animals_fish_1.png	Q	0	0	0	417.448164651287	417.648163724807
